t,Ax,Ay,Az,wx,wy,wz,Bx,By,Bz,qw,qx,qy,qz
0.6980652809143066,-0.62,-0.34,9.60,0.00,0.06,0.00,-15.69,16.25,-3.69,1.00,-0.03,0.03,0.06
1.0253403186798096,-0.64,-0.34,9.61,0.19,-0.06,0.13,-15.69,16.25,-3.38,1.00,-0.03,0.03,0.06
1.3505499362945557,-0.63,-0.35,9.56,0.13,-0.06,-0.06,-14.88,15.88,-1.75,1.00,-0.03,0.03,0.06
1.6774911880493164,-0.64,-0.35,9.61,-0.06,0.06,0.06,-16.25,15.88,-3.00,1.00,-0.03,0.03,0.06
2.0019006729125977,-0.66,-0.35,9.60,0.06,-0.06,0.00,-16.25,16.25,-3.00,1.00,-0.03,0.03,0.06
2.3290748596191406,-0.64,-0.34,9.56,-0.06,0.13,0.06,-15.25,15.88,-3.38,1.00,-0.03,0.03,0.06
2.6547539234161377,-0.63,-0.37,9.59,-0.06,-0.06,-0.13,-15.69,16.25,-3.69,1.00,-0.03,0.03,0.06
2.9807944297790527,-0.66,-0.35,9.61,-0.06,0.00,0.00,-14.50,15.88,-2.50,1.00,-0.03,0.03,0.06
3.305250644683838,-0.62,-0.34,9.57,-0.25,-0.06,0.00,-16.00,16.25,-2.50,1.00,-0.03,0.03,0.06
3.6324267387390137,-0.64,-0.35,9.59,0.00,0.00,-0.06,-16.00,15.88,-5.69,1.00,-0.03,0.03,0.06
3.957376718521118,-0.66,-0.34,9.61,-0.06,0.00,-0.06,-14.88,16.69,-4.50,1.00,-0.03,0.03,0.06
4.284119606018066,-0.64,-0.34,9.58,0.06,0.19,0.06,-14.88,16.69,-3.38,1.00,-0.03,0.03,0.06
4.608835697174072,-0.63,-0.35,9.57,0.13,0.06,0.19,-15.25,16.25,-3.38,1.00,-0.03,0.03,0.06
4.935834884643555,-0.64,-0.36,9.58,0.00,0.13,0.00,-16.00,15.88,-4.06,1.00,-0.03,0.03,0.06
5.25993013381958,-0.65,-0.35,9.58,0.13,0.00,0.00,-16.25,15.88,-2.56,1.00,-0.03,0.03,0.06
5.587259531021118,-0.67,-0.34,9.59,0.00,0.19,-0.06,-15.25,15.88,-3.69,1.00,-0.03,0.03,0.06
5.912734746932983,-0.63,-0.35,9.60,0.00,-0.06,0.06,-15.69,16.25,-3.69,1.00,-0.03,0.03,0.06
6.239193677902222,-0.65,-0.37,9.60,-0.06,0.00,0.06,-15.25,16.69,-3.69,1.00,-0.03,0.03,0.06
6.564290761947632,-0.64,-0.35,9.58,-0.06,0.06,-0.06,-16.00,16.69,-3.38,1.00,-0.03,0.03,0.06
6.89070987701416,-0.65,-0.34,9.60,0.00,0.06,0.06,-15.69,15.88,-3.38,1.00,-0.03,0.03,0.06
7.215553283691406,-0.65,-0.36,9.59,-0.06,0.13,-0.06,-16.25,16.25,-3.38,1.00,-0.03,0.03,0.06
7.542515754699707,-0.64,-0.34,9.58,0.06,0.06,0.06,-15.69,16.25,-3.00,1.00,-0.03,0.03,0.06
7.867347717285156,-0.65,-0.36,9.61,-0.19,0.13,0.00,-15.69,16.69,-3.38,1.00,-0.03,0.03,0.06
8.194115400314331,-0.63,-0.35,9.60,0.00,0.13,0.13,-15.69,16.25,-3.00,1.00,-0.03,0.03,0.06
8.518580913543701,-0.65,-0.34,9.58,0.06,0.13,-0.06,-16.25,16.25,-3.00,1.00,-0.03,0.03,0.06
8.845803022384644,-0.66,-0.35,9.61,0.00,0.06,0.06,-15.69,15.88,-2.19,1.00,-0.03,0.03,0.06
9.170588254928589,-0.65,-0.38,9.59,0.06,-0.19,0.13,-16.00,16.69,-1.88,1.00,-0.03,0.03,0.06
9.498008489608765,-0.64,-0.34,9.59,-0.13,0.00,0.19,-14.88,15.88,-2.56,1.00,-0.03,0.03,0.06
9.822203159332275,-0.66,-0.36,9.57,0.00,-0.13,0.13,-14.88,16.25,-3.00,1.00,-0.03,0.03,0.06
10.150360107421875,-0.66,-0.37,9.59,0.00,-0.13,0.13,-15.69,16.69,-3.75,1.00,-0.03,0.03,0.06
10.474494218826294,-0.64,-0.36,9.60,-0.06,-0.13,0.13,-16.69,17.00,-3.00,1.00,-0.03,0.03,0.06
10.801286697387695,-0.64,-0.36,9.58,0.06,0.13,0.06,-16.00,16.69,-3.38,1.00,-0.03,0.03,0.06
11.126920700073242,-0.65,-0.38,9.57,0.06,0.00,0.00,-15.69,15.88,-2.56,1.00,-0.03,0.03,0.06
11.452728748321533,-0.66,-0.36,9.61,0.00,0.00,0.06,-16.00,15.50,-3.00,1.00,-0.03,0.03,0.06
11.777554273605347,-0.65,-0.35,9.56,0.00,-0.13,0.19,-16.00,16.25,-3.38,1.00,-0.03,0.03,0.06
12.10465693473816,-0.64,-0.35,9.55,0.06,-0.06,0.00,-16.00,16.69,-3.00,1.00,-0.03,0.03,0.06
12.429071187973022,-0.67,-0.35,9.59,0.06,0.13,0.00,-14.88,15.19,-2.56,1.00,-0.03,0.03,0.06
12.756291389465332,-0.67,-0.37,9.60,0.13,0.13,-0.06,-16.00,15.88,-4.19,1.00,-0.03,0.03,0.06
13.0809485912323,-0.68,-0.34,9.59,0.00,0.06,0.00,-15.69,16.25,-3.38,1.00,-0.03,0.03,0.06
13.407849311828613,-0.66,-0.34,9.60,0.06,0.19,-0.06,-16.00,15.19,-3.00,1.00,-0.03,0.03,0.06
13.732760190963745,-0.63,-0.37,9.58,0.00,-0.13,-0.06,-16.25,16.69,-3.00,1.00,-0.03,0.03,0.06
14.05983853340149,-0.66,-0.35,9.59,0.06,-0.06,0.13,-15.69,17.00,-3.75,1.00,-0.03,0.03,0.06
14.385798454284668,-0.64,-0.38,9.59,0.00,-0.06,-0.06,-16.00,15.50,-2.19,1.00,-0.03,0.03,0.06
14.711237668991089,-0.65,-0.34,9.60,0.00,0.00,0.06,-15.25,17.00,-3.75,1.00,-0.03,0.03,0.06
15.03701639175415,-0.64,-0.35,9.59,-0.06,-0.13,-0.06,-15.69,16.69,-3.00,1.00,-0.03,0.03,0.06
15.363207817077637,-0.63,-0.37,9.60,0.06,0.00,-0.13,-16.00,16.69,-3.00,1.00,-0.03,0.03,0.06
15.687498569488525,-0.65,-0.36,9.60,0.06,0.00,0.06,-15.25,15.88,-3.75,1.00,-0.03,0.03,0.06
16.015974760055542,-0.65,-0.36,9.57,0.06,0.13,-0.06,-15.69,16.25,-2.56,1.00,-0.03,0.03,0.06
16.339910745620728,-0.67,-0.36,9.58,0.00,-0.06,-0.06,-15.25,15.88,-5.00,1.00,-0.03,0.03,0.06
16.666895389556885,-0.64,-0.35,9.60,0.00,-0.13,0.06,-15.69,16.25,-3.75,1.00,-0.03,0.03,0.06
16.991291046142578,-0.66,-0.36,9.61,0.00,-0.31,0.00,-16.00,15.88,-3.75,1.00,-0.03,0.03,0.06
17.318405389785767,-0.64,-0.37,9.59,-0.06,0.00,0.13,-15.25,16.69,-3.00,1.00,-0.03,0.03,0.06
17.6436026096344,-0.61,-0.37,9.61,0.06,-0.13,-0.06,-16.69,16.69,-1.88,1.00,-0.03,0.03,0.06
17.971086025238037,-0.63,-0.34,9.58,-0.06,-0.13,-0.06,-15.25,15.88,-3.75,1.00,-0.03,0.03,0.06
18.294687509536743,-0.65,-0.35,9.57,0.00,0.00,0.06,-15.69,17.00,-3.00,1.00,-0.03,0.03,0.06
18.621793031692505,-0.64,-0.36,9.57,0.00,-0.13,0.06,-15.69,16.25,-2.19,1.00,-0.03,0.03,0.06
18.946399450302124,-0.66,-0.35,9.59,0.00,0.00,-0.06,-16.00,15.19,-3.00,1.00,-0.03,0.03,0.06
19.27362036705017,-0.62,-0.35,9.60,0.00,-0.06,0.00,-16.38,16.69,-3.38,1.00,-0.03,0.03,0.06
19.59825038909912,-0.65,-0.36,9.57,-0.06,0.25,-0.06,-15.25,15.88,-4.19,1.00,-0.03,0.03,0.06
19.92567777633667,-0.66,-0.35,9.57,-0.06,-0.13,0.06,-15.25,17.00,-3.75,1.00,-0.03,0.03,0.06
20.250656366348267,-0.65,-0.33,9.60,0.00,0.25,0.00,-16.00,16.25,-3.75,1.00,-0.03,0.03,0.06
20.578278303146362,-0.65,-0.37,9.58,0.00,-0.13,0.13,-14.88,15.88,-4.19,1.00,-0.03,0.03,0.06
20.902448415756226,-0.67,-0.35,9.57,0.00,0.00,0.06,-15.25,15.88,-3.75,1.00,-0.03,0.03,0.06
21.229552507400513,-0.66,-0.34,9.60,0.00,0.19,0.06,-16.00,15.50,-3.75,1.00,-0.03,0.03,0.06
21.55388069152832,-0.65,-0.34,9.58,0.06,-0.06,0.00,-16.38,15.88,-3.75,1.00,-0.03,0.03,0.06
21.881653547286987,-0.66,-0.36,9.53,-0.06,-0.06,0.00,-16.00,16.69,-1.88,1.00,-0.03,0.03,0.06
22.205917358398438,-0.66,-0.33,9.61,0.00,-0.06,0.06,-15.69,16.25,-3.75,1.00,-0.03,0.03,0.06
22.533049821853638,-0.65,-0.36,9.58,-0.06,-0.06,-0.13,-16.38,16.69,-2.25,1.00,-0.03,0.03,0.06
22.858032703399658,-0.66,-0.35,9.58,-0.13,0.00,0.00,-16.69,15.88,-4.56,1.00,-0.03,0.03,0.06
23.185588359832764,-0.65,-0.37,9.61,-0.06,0.19,0.06,-15.69,16.69,-4.50,1.00,-0.03,0.03,0.06
23.50964593887329,-0.64,-0.35,9.60,0.00,-0.13,-0.06,-15.69,16.25,-2.25,1.00,-0.03,0.03,0.06
23.836885452270508,-0.66,-0.35,9.60,0.00,-0.06,0.06,-15.25,15.88,-2.25,1.00,-0.03,0.03,0.06
24.161932229995728,-0.65,-0.36,9.58,-0.19,-0.19,-0.06,-16.38,16.25,-3.00,1.00,-0.03,0.03,0.06
24.48763132095337,-0.64,-0.36,9.59,-0.06,0.19,0.06,-14.88,15.88,-4.19,1.00,-0.03,0.03,0.06
24.812098503112793,-0.64,-0.35,9.56,0.00,0.06,0.00,-15.25,17.00,-3.88,1.00,-0.03,0.03,0.06
25.139971256256104,-0.63,-0.36,9.59,-0.06,-0.06,0.13,-15.69,15.88,-3.38,1.00,-0.03,0.03,0.06
25.463539600372314,-0.64,-0.37,9.59,0.06,0.00,0.13,-15.69,16.25,-3.38,1.00,-0.03,0.03,0.06
25.791265964508057,-0.66,-0.35,9.61,0.06,-0.13,0.00,-15.25,15.88,-3.75,1.00,-0.03,0.03,0.06
26.115458250045776,-0.65,-0.35,9.59,0.06,-0.06,0.06,-16.00,16.25,-2.69,1.00,-0.03,0.03,0.06
26.442022562026978,-0.66,-0.36,9.59,0.13,0.06,0.00,-16.00,15.88,-3.50,1.00,-0.03,0.03,0.06
26.7662615776062,-0.67,-0.34,9.54,0.06,0.00,0.00,-15.69,16.25,-3.88,1.00,-0.03,0.03,0.06
27.093619108200073,-0.67,-0.34,9.61,0.00,0.00,0.06,-15.25,16.69,-2.69,1.00,-0.03,0.03,0.06
27.418236255645752,-0.63,-0.37,9.59,-0.13,-0.25,-0.06,-15.25,15.50,-2.69,1.00,-0.03,0.03,0.06
27.745238304138184,-0.66,-0.35,9.58,0.00,0.00,0.13,-15.25,14.75,-3.88,1.00,-0.03,0.03,0.06
28.069534301757812,-0.66,-0.35,9.60,-0.06,0.00,0.06,-14.88,15.50,-2.69,1.00,-0.03,0.03,0.06
28.397034883499146,-0.67,-0.34,9.56,-0.06,0.00,-0.06,-16.00,16.25,-3.38,1.00,-0.03,0.03,0.06
28.722657680511475,-0.66,-0.35,9.61,0.19,0.19,0.06,-15.69,16.69,-3.50,1.00,-0.03,0.03,0.06
29.048596620559692,-0.66,-0.34,9.59,0.06,-0.06,0.13,-15.25,15.88,-4.56,1.00,-0.03,0.03,0.06
29.372983694076538,-0.64,-0.37,9.59,0.00,-0.19,0.00,-16.00,15.50,-3.00,1.00,-0.03,0.03,0.06
29.700135707855225,-0.65,-0.36,9.60,-0.13,0.00,0.13,-16.00,16.69,-3.00,1.00,-0.03,0.03,0.06
30.024638652801514,-0.66,-0.36,9.58,-0.06,0.00,0.06,-15.69,16.25,-3.00,1.00,-0.03,0.03,0.06
30.35148024559021,-0.64,-0.33,9.61,0.00,0.25,0.00,-16.00,15.19,-2.69,1.00,-0.03,0.03,0.06
30.675432920455933,-0.66,-0.34,9.57,0.00,0.13,0.00,-15.25,15.88,-3.88,1.00,-0.03,0.03,0.06
31.00347375869751,-0.65,-0.35,9.59,-0.06,0.06,-0.06,-15.69,16.69,-3.50,1.00,-0.03,0.03,0.06
31.327565908432007,-0.64,-0.37,9.57,0.00,0.06,0.06,-16.00,15.88,-3.88,1.00,-0.03,0.03,0.06
31.65572214126587,-0.66,-0.37,9.57,0.00,0.00,0.13,-15.69,16.69,-3.50,1.00,-0.03,0.03,0.06
31.979597568511963,-0.65,-0.36,9.60,0.00,0.00,-0.06,-15.69,16.25,-2.25,1.00,-0.03,0.03,0.06
32.306899547576904,-0.63,-0.37,9.59,0.00,0.06,0.06,-15.69,16.69,-4.56,1.00,-0.03,0.03,0.06
32.63091850280762,-0.67,-0.34,9.58,0.00,0.00,0.06,-15.25,16.25,-3.88,1.00,-0.03,0.03,0.06
32.95883250236511,-0.66,-0.36,9.57,0.00,0.06,0.00,-16.00,16.69,-3.88,1.00,-0.03,0.03,0.06
33.28353667259216,-0.64,-0.36,9.57,-0.06,-0.19,-0.19,-16.00,15.88,-1.88,1.00,-0.03,0.03,0.06
33.61003756523132,-0.65,-0.35,9.59,0.00,0.00,0.06,-15.25,16.69,-2.69,1.00,-0.03,0.03,0.06
33.93550491333008,-0.67,-0.34,9.57,0.00,0.13,0.06,-15.25,15.88,-3.50,1.00,-0.03,0.03,0.06
34.26276111602783,-0.65,-0.36,9.59,0.06,0.00,0.00,-16.38,16.25,-3.06,1.00,-0.03,0.03,0.06
34.587013483047485,-0.65,-0.35,9.57,-0.13,0.00,0.00,-16.00,15.50,-3.50,1.00,-0.03,0.03,0.06
34.913381576538086,-0.66,-0.35,9.58,-0.06,-0.06,-0.06,-16.00,15.88,-4.19,1.00,-0.03,0.03,0.06
35.23749303817749,-0.65,-0.38,9.59,0.00,0.00,0.13,-15.69,15.88,-3.06,1.00,-0.03,0.03,0.06
35.5649573802948,-0.65,-0.35,9.56,-0.13,-0.13,0.13,-14.88,15.88,-2.25,1.00,-0.03,0.03,0.06
35.88926815986633,-0.65,-0.36,9.59,0.00,-0.25,0.06,-15.69,15.50,-2.69,1.00,-0.03,0.03,0.06
36.21666407585144,-0.64,-0.34,9.60,0.00,0.06,-0.06,-15.69,15.88,-2.69,1.00,-0.03,0.03,0.06
36.54078674316406,-0.63,-0.36,9.59,0.00,0.13,-0.13,-15.25,15.88,-2.69,1.00,-0.03,0.03,0.06
36.867814779281616,-0.65,-0.35,9.61,0.06,0.13,0.13,-15.69,16.25,-4.56,1.00,-0.03,0.03,0.06
37.192368030548096,-0.65,-0.35,9.60,0.06,0.00,0.19,-16.00,16.25,-3.50,1.00,-0.03,0.03,0.06
37.519209146499634,-0.61,-0.39,9.59,0.00,-0.06,0.00,-15.25,15.50,-3.06,1.00,-0.03,0.03,0.06
37.843833684921265,-0.67,-0.35,9.58,0.06,0.00,0.06,-16.00,16.69,-4.19,1.00,-0.03,0.03,0.06
38.17138409614563,-0.63,-0.36,9.57,0.06,-0.06,0.06,-15.25,15.50,-3.50,1.00,-0.03,0.03,0.06
38.49555683135986,-0.64,-0.37,9.59,0.00,-0.19,0.00,-14.88,15.88,-3.06,1.00,-0.03,0.03,0.06
38.822954177856445,-0.65,-0.35,9.61,0.00,-0.25,-0.13,-15.69,16.69,-3.50,1.00,-0.03,0.03,0.06
39.14760732650757,-0.65,-0.37,9.59,0.06,0.25,-0.13,-15.25,15.88,-3.50,1.00,-0.03,0.03,0.06
39.47418403625488,-0.65,-0.34,9.60,-0.06,0.06,0.00,-16.00,16.25,-3.50,1.00,-0.03,0.03,0.06
39.79853391647339,-0.67,-0.33,9.61,0.00,0.00,0.06,-15.69,16.25,-3.06,1.00,-0.03,0.03,0.06
40.125638008117676,-0.66,-0.37,9.58,0.00,0.00,-0.13,-16.00,16.25,-3.06,1.00,-0.03,0.03,0.06
40.450663328170776,-0.66,-0.36,9.60,0.06,-0.06,0.00,-16.38,15.50,-2.69,1.00,-0.03,0.03,0.06
40.77670073509216,-0.65,-0.36,9.56,0.00,-0.06,0.06,-15.69,15.88,-2.25,1.00,-0.03,0.03,0.06
41.101900815963745,-0.66,-0.36,9.59,-0.06,0.06,0.13,-15.25,16.69,-2.69,1.00,-0.03,0.03,0.06
41.42886567115784,-0.63,-0.33,9.57,-0.06,0.00,0.00,-16.00,16.69,-3.50,1.00,-0.03,0.03,0.06
41.75320243835449,-0.64,-0.35,9.60,-0.13,0.19,0.00,-15.69,16.25,-3.06,1.00,-0.03,0.03,0.06
42.08023238182068,-0.65,-0.36,9.60,0.00,-0.06,0.13,-15.69,16.25,-3.50,1.00,-0.03,0.03,0.06
42.40516138076782,-0.64,-0.36,9.58,-0.06,0.06,0.06,-16.38,16.25,-3.06,1.00,-0.03,0.03,0.06
42.73444986343384,-0.65,-0.36,9.55,0.00,-0.06,-0.06,-20.00,19.25,-41.25,1.00,-0.03,0.03,0.06
43.05675148963928,-0.65,-0.36,9.59,0.13,0.06,0.00,-19.56,19.25,-40.88,1.00,-0.03,0.03,0.06
43.38466739654541,-0.68,-0.36,9.58,-0.19,-0.06,-0.06,-19.25,18.88,-40.06,1.00,-0.03,0.03,0.06
43.70908451080322,-0.66,-0.37,9.58,0.06,0.00,0.00,-18.88,18.06,-40.88,1.00,-0.03,0.03,0.06
44.03673791885376,-0.67,-0.35,9.57,-0.13,-0.06,-0.06,-19.25,18.50,-38.88,1.00,-0.03,0.03,0.06
44.36074733734131,-0.65,-0.35,9.57,0.00,0.06,0.00,-20.00,18.88,-39.75,1.00,-0.03,0.03,0.06
44.68834853172302,-0.66,-0.35,9.58,0.06,0.06,0.13,-18.88,18.88,-41.25,1.00,-0.03,0.03,0.06
45.01265788078308,-0.63,-0.38,9.62,0.00,0.13,0.06,-18.88,18.88,-40.50,1.00,-0.03,0.03,0.06
45.340755224227905,-0.65,-0.36,9.61,0.00,0.00,0.13,-19.25,18.06,-41.25,1.00,-0.03,0.03,0.06
45.66343903541565,-0.64,-0.35,9.57,0.06,-0.06,-0.06,-18.50,18.88,-40.50,1.00,-0.03,0.03,0.06
45.99075746536255,-0.66,-0.37,9.60,0.06,-0.13,0.06,-19.56,18.88,-39.75,1.00,-0.03,0.03,0.06
46.31604480743408,-0.65,-0.34,9.60,0.06,-0.13,0.06,-19.25,17.75,-40.88,1.00,-0.03,0.03,0.06
46.642897605895996,-0.67,-0.37,9.55,0.00,-0.06,-0.06,-19.25,18.88,-40.50,1.00,-0.03,0.03,0.06
46.96828627586365,-0.67,-0.34,9.58,0.13,0.13,0.13,-20.00,18.50,-39.75,1.00,-0.03,0.03,0.06
47.296229124069214,-0.65,-0.36,9.58,-0.06,-0.06,0.06,-18.50,18.88,-40.50,1.00,-0.03,0.03,0.06
47.61899471282959,-0.64,-0.37,9.58,0.00,-0.06,0.00,-19.25,18.06,-41.25,1.00,-0.03,0.03,0.06
47.94662070274353,-0.65,-0.36,9.59,-0.13,-0.06,-0.13,-18.88,18.88,-41.25,1.00,-0.03,0.03,0.06
48.27108955383301,-0.67,-0.33,9.58,0.00,0.13,0.06,-19.56,19.25,-40.06,1.00,-0.03,0.03,0.06
48.59828019142151,-0.65,-0.36,9.55,-0.13,-0.06,0.00,-18.88,18.06,-40.50,1.00,-0.03,0.03,0.06
48.923362731933594,-0.66,-0.34,9.57,-0.06,-0.13,0.13,-19.25,18.50,-40.50,1.00,-0.03,0.03,0.06
49.25043034553528,-0.65,-0.35,9.57,0.06,0.00,-0.06,-19.25,18.88,-40.50,1.00,-0.03,0.03,0.06
49.57440495491028,-0.66,-0.34,9.59,0.06,-0.06,0.00,-19.56,19.25,-40.50,1.00,-0.03,0.03,0.06
49.90227031707764,-0.66,-0.35,9.61,0.00,0.00,-0.06,-19.56,18.50,-40.06,1.00,-0.03,0.03,0.06
50.226194858551025,-0.65,-0.35,9.59,-0.06,0.13,0.06,-20.00,18.88,-40.88,1.00,-0.03,0.03,0.06
50.55339169502258,-0.65,-0.35,9.57,0.06,0.06,-0.06,-18.88,18.88,-40.06,1.00,-0.03,0.03,0.06
50.87799286842346,-0.67,-0.35,9.59,0.00,0.13,-0.13,-19.25,19.25,-40.88,1.00,-0.03,0.03,0.06
51.20507574081421,-0.65,-0.36,9.55,0.06,0.13,-0.06,-19.25,18.50,-40.88,1.00,-0.03,0.03,0.06
51.53024983406067,-0.66,-0.34,9.58,-0.06,-0.06,0.00,-19.56,18.50,-40.06,1.00,-0.03,0.03,0.06
51.85918569564819,-0.67,-0.37,9.58,0.06,0.06,0.00,-20.00,18.88,-40.88,1.00,-0.03,0.03,0.06
52.181750535964966,-0.65,-0.36,9.59,0.00,0.06,0.00,-18.50,18.50,-40.50,1.00,-0.03,0.03,0.06
52.50959324836731,-0.66,-0.36,9.56,0.06,-0.13,0.13,-18.88,19.56,-40.06,1.00,-0.03,0.03,0.06
52.8349335193634,-0.66,-0.35,9.60,-0.06,-0.06,0.00,-18.88,18.50,-40.88,1.00,-0.03,0.03,0.06
53.1636164188385,-0.65,-0.33,9.56,0.06,-0.13,0.00,-19.56,19.25,-40.50,1.00,-0.03,0.03,0.06
53.48608446121216,-0.63,-0.36,9.58,0.00,0.00,0.00,-19.56,18.88,-40.06,1.00,-0.03,0.03,0.06
53.81209874153137,-0.66,-0.37,9.61,-0.06,0.06,0.00,-20.38,18.50,-40.50,1.00,-0.03,0.03,0.06
54.137122631073,-0.67,-0.36,9.56,-0.13,0.06,-0.06,-19.56,18.50,-40.88,1.00,-0.03,0.03,0.06
54.46480965614319,-0.66,-0.37,9.57,-0.06,0.19,0.06,-19.25,18.50,-39.38,1.00,-0.03,0.03,0.06
54.789589643478394,-0.67,-0.35,9.56,0.00,0.00,-0.06,-18.88,18.88,-41.25,1.00,-0.03,0.03,0.06
55.116297483444214,-0.66,-0.36,9.59,0.06,-0.25,0.00,-17.75,19.25,-40.88,1.00,-0.03,0.03,0.06
55.440709829330444,-0.66,-0.35,9.58,0.00,0.13,0.06,-19.25,19.25,-40.50,1.00,-0.03,0.03,0.06
55.768277406692505,-0.67,-0.36,9.61,-0.06,0.13,-0.19,-18.88,18.50,-41.25,1.00,-0.03,0.03,0.06
56.092676639556885,-0.67,-0.36,9.60,0.13,-0.19,0.06,-19.56,18.50,-40.06,1.00,-0.03,0.03,0.06
56.42093467712402,-0.67,-0.35,9.60,-0.06,0.38,-0.06,-20.00,18.50,-40.88,1.00,-0.03,0.03,0.06
56.74573612213135,-0.66,-0.36,9.55,-0.06,-0.19,-0.06,-18.88,18.88,-41.25,1.00,-0.03,0.03,0.06
57.07162308692932,-0.67,-0.36,9.58,0.00,0.06,0.06,-18.88,18.50,-40.50,1.00,-0.03,0.03,0.06
57.396395444869995,-0.67,-0.36,9.58,0.00,-0.13,0.00,-19.56,19.56,-41.25,1.00,-0.03,0.03,0.06
57.7232391834259,-0.65,-0.36,9.56,0.06,-0.25,0.00,-18.88,18.50,-40.50,1.00,-0.03,0.03,0.06
58.04794883728027,-0.67,-0.36,9.58,0.00,0.19,-0.13,-19.56,18.50,-40.56,1.00,-0.03,0.03,0.06
58.37423491477966,-0.67,-0.35,9.61,-0.06,-0.13,0.00,-19.25,18.06,-42.06,1.00,-0.03,0.03,0.06
58.701138734817505,-0.67,-0.35,9.61,-0.13,-0.13,-0.13,-20.00,19.25,-40.88,1.00,-0.03,0.03,0.06
59.02674579620361,-0.65,-0.35,9.58,0.00,-0.25,0.00,-19.25,19.25,-39.75,1.00,-0.03,0.03,0.06
59.35131096839905,-0.66,-0.34,9.59,0.00,0.19,-0.06,-20.69,18.06,-40.56,1.00,-0.03,0.03,0.06
59.67875623703003,-0.67,-0.35,9.58,0.06,-0.19,0.06,-18.88,18.50,-40.88,1.00,-0.03,0.03,0.06
60.00339436531067,-0.66,-0.34,9.57,0.00,0.06,0.00,-18.50,18.50,-40.06,1.00,-0.03,0.03,0.06
60.330174922943115,-0.65,-0.34,9.59,0.00,-0.13,-0.06,-19.56,18.50,-40.88,1.00,-0.03,0.03,0.06
60.65484833717346,-0.65,-0.36,9.59,0.06,0.06,0.13,-19.25,18.50,-40.50,1.00,-0.03,0.03,0.06
60.98183631896973,-0.65,-0.35,9.57,-0.06,-0.13,0.00,-18.88,18.88,-40.88,1.00,-0.03,0.03,0.06
61.30665588378906,-0.67,-0.37,9.58,0.00,0.00,-0.06,-20.00,18.50,-40.56,1.00,-0.03,0.03,0.06
61.6338894367218,-0.65,-0.36,9.59,0.00,0.00,0.00,-19.56,18.88,-39.38,1.00,-0.03,0.03,0.06
61.95811200141907,-0.67,-0.35,9.58,0.00,0.00,0.00,-18.88,18.88,-39.75,1.00,-0.03,0.03,0.06
62.28489875793457,-0.67,-0.36,9.58,-0.06,0.06,0.00,-18.50,18.88,-40.88,1.00,-0.03,0.03,0.06
62.61012125015259,-0.65,-0.36,9.58,-0.06,0.13,0.00,-18.88,18.06,-39.75,1.00,-0.03,0.03,0.06
62.936315298080444,-0.67,-0.36,9.60,0.06,0.13,0.00,-18.88,19.25,-40.56,1.00,-0.03,0.03,0.06
63.26128149032593,-0.63,-0.36,9.58,0.06,0.13,0.06,-19.56,18.06,-41.69,1.00,-0.03,0.03,0.06
63.58866548538208,-0.65,-0.37,9.58,0.19,-0.06,-0.06,-20.00,19.25,-40.56,1.00,-0.03,0.03,0.06
63.91308903694153,-0.64,-0.36,9.60,0.00,0.00,0.00,-18.06,19.25,-40.88,1.00,-0.03,0.03,0.06
64.24011707305908,-0.66,-0.37,9.56,0.06,0.13,-0.13,-19.25,18.50,-40.56,1.00,-0.03,0.03,0.06
64.56533002853394,-0.65,-0.34,9.56,-0.06,-0.13,0.06,-18.88,18.50,-39.38,1.00,-0.03,0.03,0.06
64.89209246635437,-0.66,-0.34,9.60,0.06,-0.19,-0.06,-18.88,18.06,-40.88,1.00,-0.03,0.03,0.06
65.21722388267517,-0.67,-0.36,9.62,0.13,0.00,0.00,-19.25,18.88,-40.19,1.00,-0.03,0.03,0.06
65.54360914230347,-0.65,-0.38,9.60,0.00,-0.13,0.06,-19.56,19.25,-39.75,1.00,-0.03,0.03,0.06
65.87092566490173,-0.65,-0.37,9.56,0.06,-0.06,0.00,-19.56,19.25,-40.88,1.00,-0.03,0.03,0.06
66.19548654556274,-0.67,-0.34,9.61,0.00,-0.06,0.00,-20.00,18.50,-40.56,1.00,-0.03,0.03,0.06
66.52038669586182,-0.65,-0.36,9.57,0.13,-0.06,0.00,-19.25,18.88,-41.25,1.00,-0.03,0.03,0.06
66.84793281555176,-0.67,-0.36,9.58,-0.06,0.13,0.00,-18.06,18.50,-40.06,1.00,-0.03,0.03,0.06
67.17183899879456,-0.66,-0.37,9.60,-0.06,0.00,0.00,-19.25,18.50,-39.75,1.00,-0.03,0.03,0.06
67.49851584434509,-0.68,-0.35,9.60,0.00,0.06,0.06,-19.25,18.06,-39.00,1.00,-0.03,0.03,0.06
67.82341837882996,-0.66,-0.37,9.55,0.00,-0.19,0.06,-18.88,18.50,-41.69,1.00,-0.03,0.03,0.06
68.14997959136963,-0.65,-0.36,9.60,0.00,0.00,0.06,-20.38,18.88,-40.19,1.00,-0.03,0.03,0.06
68.47494339942932,-0.63,-0.35,9.59,0.06,0.06,0.06,-20.00,18.88,-40.56,1.00,-0.03,0.03,0.06
68.80116081237793,-0.66,-0.36,9.61,0.13,0.06,0.13,-19.25,18.50,-40.88,1.00,-0.03,0.03,0.06
69.1263267993927,-0.61,-0.35,9.57,0.00,-0.13,0.00,-19.56,18.88,-40.56,1.00,-0.03,0.03,0.06
69.45421266555786,-0.68,-0.35,9.55,-0.06,0.06,-0.06,-18.50,18.50,-40.56,1.00,-0.03,0.03,0.06
69.77919507026672,-0.68,-0.35,9.59,0.13,-0.06,-0.06,-18.50,18.50,-40.19,1.00,-0.03,0.03,0.06
70.10574054718018,-0.67,-0.35,9.60,-0.13,-0.13,-0.06,-18.06,18.50,-40.56,1.00,-0.03,0.03,0.06
70.430504322052,-0.65,-0.34,9.57,0.00,-0.25,0.00,-19.25,19.56,-41.25,1.00,-0.03,0.03,0.06
70.7573070526123,-0.66,-0.36,9.60,-0.13,0.13,0.00,-18.88,18.88,-39.38,1.00,-0.03,0.03,0.06
71.08175873756409,-0.64,-0.34,9.58,-0.06,0.13,-0.13,-20.00,19.25,-41.25,1.00,-0.03,0.03,0.06
71.40887451171875,-0.67,-0.36,9.62,0.06,-0.06,0.13,-19.25,18.88,-40.56,1.00,-0.03,0.03,0.06
71.73361802101135,-0.66,-0.37,9.57,0.00,-0.19,-0.19,-18.88,18.88,-39.75,1.00,-0.03,0.03,0.06
72.06041169166565,-0.67,-0.36,9.58,-0.06,0.00,0.00,-19.25,18.88,-40.19,1.00,-0.03,0.03,0.06
72.38564658164978,-0.67,-0.35,9.60,-0.06,0.13,0.00,-19.25,18.06,-41.25,1.00,-0.03,0.03,0.06
72.7119653224945,-0.65,-0.37,9.60,0.06,-0.13,0.06,-19.56,19.25,-40.19,1.00,-0.03,0.03,0.06
73.03854322433472,-0.65,-0.36,9.61,-0.06,0.06,-0.06,-19.56,18.50,-40.88,1.00,-0.03,0.03,0.06
73.36394333839417,-0.66,-0.36,9.57,-0.06,0.00,0.06,-18.88,19.25,-40.56,1.00,-0.03,0.03,0.06
73.68839740753174,-0.67,-0.37,9.55,0.00,0.13,0.00,-20.00,18.06,-41.25,1.00,-0.03,0.03,0.06
74.01571726799011,-0.66,-0.34,9.56,0.00,0.06,0.25,-19.25,18.88,-40.88,1.00,-0.03,0.03,0.06
74.3400526046753,-0.65,-0.40,9.61,0.06,0.00,0.00,-19.56,18.50,-39.38,1.00,-0.03,0.03,0.06
74.6676242351532,-0.67,-0.35,9.56,0.19,0.06,0.06,-18.88,19.25,-41.25,1.00,-0.03,0.03,0.06
74.99144744873047,-0.64,-0.35,9.58,0.00,0.00,-0.19,-19.56,18.06,-40.88,1.00,-0.03,0.03,0.06
75.31892442703247,-0.66,-0.36,9.59,0.00,-0.06,0.00,-19.25,18.06,-39.75,1.00,-0.03,0.03,0.06
75.6439745426178,-0.66,-0.37,9.58,-0.13,-0.06,-0.13,-20.00,19.25,-41.25,1.00,-0.03,0.03,0.06
75.9707465171814,-0.66,-0.34,9.56,0.00,0.00,-0.06,-19.56,19.25,-40.88,1.00,-0.03,0.03,0.06
76.29534602165222,-0.66,-0.36,9.57,0.00,-0.31,0.00,-19.25,18.88,-40.56,1.00,-0.03,0.03,0.06
76.62277603149414,-0.65,-0.35,9.58,0.00,0.19,0.06,-19.25,18.88,-40.19,1.00,-0.03,0.03,0.06
76.94691681861877,-0.67,-0.35,9.60,0.00,0.00,0.00,-19.56,19.25,-39.75,1.00,-0.03,0.03,0.06
77.27376961708069,-0.64,-0.36,9.57,0.06,0.06,0.06,-20.38,18.50,-40.19,1.00,-0.03,0.03,0.06
77.59990334510803,-0.67,-0.37,9.59,-0.13,-0.06,-0.06,-20.00,18.06,-41.25,1.00,-0.03,0.03,0.06
77.92676091194153,-0.67,-0.37,9.60,0.06,0.13,0.06,-20.00,19.25,-40.88,1.00,-0.03,0.03,0.06
78.25043177604675,-0.67,-0.36,9.59,0.06,-0.06,0.00,-19.56,19.25,-41.25,1.00,-0.03,0.03,0.06
78.57797431945801,-0.66,-0.35,9.57,-0.06,0.19,-0.06,-20.38,18.88,-41.25,1.00,-0.03,0.03,0.06
78.9035816192627,-0.67,-0.35,9.61,0.06,-0.06,0.06,-19.25,18.50,-40.88,1.00,-0.03,0.03,0.06
79.22986054420471,-0.66,-0.37,9.57,0.00,0.00,0.00,-18.88,19.25,-40.88,1.00,-0.03,0.03,0.06
79.55559492111206,-0.65,-0.36,9.59,0.06,-0.25,0.06,-19.25,18.88,-41.75,1.00,-0.03,0.03,0.06
79.88358616828918,-0.64,-0.36,9.59,-0.06,0.00,0.06,-20.00,19.25,-40.19,1.00,-0.03,0.03,0.06
80.20614552497864,-0.65,-0.39,9.60,0.06,0.00,-0.06,-20.00,18.06,-40.56,1.00,-0.03,0.03,0.06
80.53313493728638,-0.66,-0.36,9.60,-0.06,0.13,0.06,-20.38,18.88,-40.88,1.00,-0.03,0.03,0.06
80.8574526309967,-0.66,-0.35,9.59,-0.13,0.13,0.19,-18.88,18.50,-41.25,1.00,-0.03,0.03,0.06
81.18518590927124,-0.67,-0.33,9.57,-0.06,0.06,0.06,-18.88,18.50,-38.25,1.00,-0.03,0.03,0.06
81.50935006141663,-0.66,-0.34,9.60,-0.13,0.13,0.00,-18.88,18.88,-40.19,1.00,-0.03,0.03,0.06
81.8364028930664,-0.67,-0.34,9.59,0.06,0.00,0.06,-20.00,18.50,-40.56,1.00,-0.03,0.03,0.06
82.16090178489685,-0.66,-0.34,9.56,0.06,-0.13,0.00,-18.06,19.25,-40.56,1.00,-0.03,0.03,0.06
82.48812294006348,-0.66,-0.36,9.57,0.06,-0.06,0.00,-20.00,18.88,-41.25,1.00,-0.03,0.03,0.06
82.812744140625,-0.66,-0.35,9.61,0.06,-0.13,0.00,-20.00,18.50,-40.56,1.00,-0.03,0.03,0.06
83.13979983329773,-0.65,-0.35,9.58,0.00,-0.06,0.00,-18.50,19.25,-40.88,1.00,-0.03,0.03,0.06
83.46464610099792,-0.66,-0.36,9.60,0.00,-0.13,-0.06,-19.56,18.88,-40.19,1.00,-0.03,0.03,0.06
83.79150557518005,-0.67,-0.36,9.60,0.06,0.06,0.00,-19.56,18.88,-39.75,1.00,-0.03,0.03,0.06
84.11575150489807,-0.66,-0.35,9.58,0.00,0.00,-0.06,-19.56,18.06,-39.75,1.00,-0.03,0.03,0.06
84.44339060783386,-0.67,-0.34,9.57,0.06,-0.13,0.06,-19.25,18.50,-40.88,1.00,-0.03,0.03,0.06
84.76804184913635,-0.66,-0.34,9.56,0.06,-0.06,0.00,-19.56,19.56,-40.56,1.00,-0.03,0.03,0.06
85.09734416007996,-0.67,-0.34,9.61,0.13,0.06,-0.06,-18.88,17.75,-41.75,1.00,-0.03,0.03,0.06
85.42014050483704,-0.65,-0.35,9.58,0.00,0.19,0.00,-19.56,18.50,-40.88,1.00,-0.03,0.03,0.06
85.74709963798523,-0.66,-0.35,9.57,0.00,0.00,0.19,-19.25,18.88,-40.88,1.00,-0.03,0.03,0.06
86.07130360603333,-0.66,-0.34,9.57,0.00,0.06,-0.13,-19.25,18.06,-40.56,1.00,-0.03,0.03,0.06
86.3988585472107,-0.68,-0.36,9.61,0.06,-0.06,-0.06,-20.00,19.25,-40.88,1.00,-0.03,0.03,0.06
86.72369647026062,-0.65,-0.33,9.57,0.06,0.06,-0.06,-19.25,18.50,-40.88,1.00,-0.03,0.03,0.06
87.05113625526428,-0.67,-0.34,9.58,0.06,0.00,0.00,-19.25,18.06,-41.00,1.00,-0.03,0.03,0.06
87.37595653533936,-0.69,-0.35,9.58,0.13,0.06,-0.06,-18.88,18.88,-41.38,1.00,-0.03,0.03,0.06
87.70263957977295,-0.67,-0.35,9.60,0.06,-0.06,0.13,-19.56,18.88,-40.56,1.00,-0.03,0.03,0.06
88.02813172340393,-0.65,-0.38,9.60,0.00,-0.06,0.13,-18.88,18.50,-40.88,1.00,-0.03,0.03,0.06
88.35432696342468,-0.65,-0.36,9.55,-0.06,-0.19,0.00,-18.88,18.88,-40.19,1.00,-0.03,0.03,0.06
88.67939686775208,-0.67,-0.37,9.62,0.06,0.06,-0.06,-18.88,18.50,-40.19,1.00,-0.03,0.03,0.06
89.00594282150269,-0.67,-0.37,9.60,0.00,0.00,-0.06,-19.56,18.88,-39.38,1.00,-0.03,0.03,0.06
89.33062434196472,-0.66,-0.35,9.60,0.00,-0.13,0.06,-18.88,18.88,-40.56,1.00,-0.03,0.03,0.06
89.65756940841675,-0.68,-0.36,9.60,0.00,0.13,0.06,-19.56,19.25,-41.75,1.00,-0.03,0.03,0.06
89.98349380493164,-0.67,-0.35,9.58,0.00,-0.19,0.00,-19.56,18.88,-41.00,1.00,-0.03,0.03,0.06
90.30933237075806,-0.65,-0.36,9.59,0.00,0.13,-0.19,-19.56,18.50,-41.00,1.00,-0.03,0.03,0.06
90.63417220115662,-0.66,-0.36,9.61,0.06,-0.06,0.00,-19.25,18.88,-40.19,1.00,-0.03,0.03,0.06
90.96110773086548,-0.66,-0.36,9.59,0.19,0.00,0.13,-19.56,19.56,-40.19,1.00,-0.03,0.03,0.06
91.2869279384613,-0.66,-0.35,9.57,0.00,0.06,0.00,-19.25,18.88,-41.00,1.00,-0.03,0.03,0.06
91.6130256652832,-0.68,-0.34,9.57,0.06,0.06,0.00,-19.25,18.50,-39.75,1.00,-0.03,0.03,0.06
91.93876147270203,-0.68,-0.36,9.62,0.00,0.00,0.06,-19.25,18.88,-39.75,1.00,-0.03,0.03,0.06
92.26606488227844,-0.66,-0.35,9.57,-0.06,-0.19,0.00,-19.56,18.88,-40.19,1.00,-0.03,0.03,0.06
92.58926320075989,-0.66,-0.36,9.59,0.00,0.00,0.13,-19.56,18.50,-39.75,1.00,-0.03,0.03,0.06
92.91631984710693,-0.67,-0.35,9.59,0.00,0.00,0.00,-19.56,18.06,-41.75,1.00,-0.03,0.03,0.06
93.24104976654053,-0.65,-0.36,9.55,0.00,0.13,-0.19,-18.50,18.50,-40.56,1.00,-0.03,0.03,0.06
93.56886100769043,-0.68,-0.37,9.60,-0.06,-0.19,0.00,-20.38,19.56,-40.19,1.00,-0.03,0.03,0.06
93.89402842521667,-0.66,-0.36,9.59,0.06,0.00,0.13,-18.88,18.50,-40.56,1.00,-0.03,0.03,0.06
94.22108173370361,-0.66,-0.35,9.57,-0.13,-0.13,0.00,-18.50,18.88,-42.06,1.00,-0.03,0.03,0.06
94.5448796749115,-0.67,-0.37,9.60,0.00,0.13,0.00,-20.00,18.50,-39.38,1.00,-0.03,0.03,0.06
94.8719699382782,-0.67,-0.36,9.57,0.00,0.13,0.00,-19.56,18.50,-41.00,1.00,-0.03,0.03,0.06
95.19689416885376,-0.66,-0.36,9.59,0.00,-0.19,0.06,-19.56,18.06,-41.00,1.00,-0.03,0.03,0.06
95.52394008636475,-0.65,-0.36,9.61,0.00,0.13,0.06,-19.56,18.50,-40.56,1.00,-0.03,0.03,0.06
95.84834671020508,-0.64,-0.37,9.57,0.19,0.06,0.19,-19.25,18.88,-40.56,1.00,-0.03,0.03,0.06
96.17572140693665,-0.65,-0.36,9.59,-0.13,-0.13,0.00,-19.56,18.88,-40.56,1.00,-0.03,0.03,0.06
96.50022149085999,-0.66,-0.35,9.61,-0.19,0.06,0.00,-18.88,18.50,-40.56,1.00,-0.03,0.03,0.06
96.82844662666321,-0.68,-0.34,9.64,0.06,-0.19,-0.06,-19.25,18.50,-41.00,1.00,-0.03,0.03,0.06
97.15300273895264,-0.67,-0.34,9.56,-0.13,0.19,-0.06,-20.00,18.50,-41.00,1.00,-0.03,0.03,0.06
97.47981858253479,-0.67,-0.36,9.56,0.13,0.06,0.06,-19.25,18.50,-40.56,1.00,-0.03,0.03,0.06
97.8045244216919,-0.67,-0.36,9.59,0.00,0.13,-0.06,-18.50,18.50,-40.56,1.00,-0.03,0.03,0.06
98.13186740875244,-0.66,-0.38,9.55,-0.06,-0.06,-0.13,-18.50,18.06,-40.19,1.00,-0.03,0.03,0.06
98.45620107650757,-0.67,-0.36,9.62,-0.06,0.00,0.06,-20.00,18.50,-41.38,1.00,-0.03,0.03,0.06
98.78332185745239,-0.66,-0.34,9.57,0.06,-0.13,0.06,-19.56,18.88,-41.00,1.00,-0.03,0.03,0.06
99.10756635665894,-0.70,-0.37,9.58,0.00,0.38,-0.06,-19.56,19.25,-41.00,1.00,-0.03,0.03,0.06
99.43495440483093,-0.62,-0.38,9.57,0.06,0.06,0.06,-19.25,19.25,-40.19,1.00,-0.03,0.03,0.06
99.75924563407898,-0.64,-0.34,9.62,0.06,-0.13,0.06,-20.00,18.88,-41.00,1.00,-0.03,0.03,0.06
100.08675050735474,-0.66,-0.36,9.60,0.06,0.13,-0.06,-19.25,18.50,-42.06,1.00,-0.03,0.03,0.06
100.41141772270203,-0.65,-0.36,9.58,0.00,-0.13,-0.06,-18.88,17.75,-41.00,1.00,-0.03,0.03,0.06
100.7383406162262,-0.65,-0.34,9.58,0.00,0.13,0.00,-19.25,19.25,-40.56,1.00,-0.03,0.03,0.06
101.06338214874268,-0.66,-0.38,9.60,0.06,-0.13,0.06,-18.50,18.50,-41.00,1.00,-0.03,0.03,0.06
101.39039993286133,-0.67,-0.35,9.58,0.00,-0.06,-0.06,-20.00,18.88,-40.25,1.00,-0.03,0.03,0.06
101.71672296524048,-0.68,-0.34,9.59,0.00,0.00,0.00,-19.56,18.50,-40.56,1.00,-0.03,0.03,0.06
102.0419054031372,-0.65,-0.35,9.58,0.13,-0.13,0.00,-19.25,18.50,-41.38,1.00,-0.03,0.03,0.06
102.36653709411621,-0.66,-0.34,9.57,-0.06,0.06,-0.06,-19.25,18.88,-40.56,1.00,-0.03,0.03,0.06
102.69392538070679,-0.66,-0.36,9.56,0.00,-0.06,0.06,-19.25,18.88,-39.75,1.00,-0.03,0.03,0.06
103.01877164840698,-0.67,-0.37,9.60,0.19,0.00,-0.06,-19.25,18.06,-40.25,1.00,-0.03,0.03,0.06
103.3481068611145,-0.67,-0.36,9.56,-0.13,-0.25,-0.06,-18.88,17.75,-39.75,1.00,-0.03,0.03,0.06
103.6714277267456,-0.67,-0.36,9.63,0.00,-0.19,-0.13,-19.56,18.50,-40.25,1.00,-0.03,0.03,0.06
103.99810910224915,-0.66,-0.35,9.60,0.06,-0.06,0.06,-18.50,18.88,-41.38,1.00,-0.03,0.03,0.06
104.32309317588806,-0.65,-0.35,9.61,-0.06,0.13,0.06,-18.88,18.88,-40.25,1.00,-0.03,0.03,0.06
104.64970707893372,-0.65,-0.36,9.59,0.00,-0.13,0.06,-18.88,18.50,-40.56,1.00,-0.03,0.03,0.06
104.97464323043823,-0.66,-0.34,9.60,0.13,-0.06,0.06,-18.88,18.06,-40.19,1.00,-0.03,0.03,0.06
105.30133485794067,-0.66,-0.36,9.57,0.06,0.00,-0.06,-19.56,18.06,-40.56,1.00,-0.03,0.03,0.06
105.62598514556885,-0.67,-0.37,9.60,0.00,-0.13,-0.19,-19.56,18.50,-39.88,1.00,-0.03,0.03,0.06
105.95317888259888,-0.65,-0.35,9.60,0.13,0.00,-0.06,-19.56,18.50,-40.56,1.00,-0.03,0.03,0.06
106.2784526348114,-0.64,-0.37,9.57,0.06,0.13,-0.06,-19.25,17.38,-41.00,1.00,-0.03,0.03,0.06
106.60490322113037,-0.67,-0.35,9.57,0.00,-0.06,0.19,-19.25,18.06,-41.00,1.00,-0.03,0.03,0.06
106.93002939224243,-0.69,-0.35,9.59,0.06,-0.06,-0.13,-20.00,19.25,-40.56,1.00,-0.03,0.03,0.06
107.25811815261841,-0.66,-0.37,9.57,-0.13,0.00,0.06,-19.25,18.06,-40.25,1.00,-0.03,0.03,0.06
107.58299565315247,-0.64,-0.35,9.58,0.00,-0.06,0.06,-18.88,18.50,-40.25,1.00,-0.03,0.03,0.06
107.90891408920288,-0.64,-0.35,9.58,-0.13,-0.06,-0.13,-18.50,18.50,-40.56,1.00,-0.03,0.03,0.06
108.23274970054626,-0.67,-0.36,9.58,0.00,0.06,0.00,-20.00,18.50,-39.75,1.00,-0.03,0.03,0.06
108.55953216552734,-0.66,-0.36,9.58,0.13,0.06,0.06,-20.00,18.88,-40.56,1.00,-0.03,0.03,0.06
108.88447594642639,-0.67,-0.36,9.58,0.00,-0.19,0.13,-19.56,18.50,-39.38,1.00,-0.03,0.03,0.06
109.21056962013245,-0.66,-0.35,9.58,0.00,-0.06,0.06,-18.88,18.50,-40.56,1.00,-0.03,0.03,0.06
109.53552794456482,-0.67,-0.35,9.57,0.19,-0.19,0.13,-19.25,18.88,-40.25,1.00,-0.03,0.03,0.06
109.86294198036194,-0.66,-0.37,9.61,0.00,0.19,0.00,-19.25,18.50,-40.25,1.00,-0.03,0.03,0.06
110.18784618377686,-0.67,-0.36,9.61,-0.06,-0.13,0.00,-18.88,18.50,-40.25,1.00,-0.03,0.03,0.06
110.51472425460815,-0.65,-0.35,9.58,-0.13,0.13,0.06,-20.00,18.50,-41.00,1.00,-0.03,0.03,0.06
110.83965229988098,-0.65,-0.34,9.59,0.06,0.25,-0.06,-18.88,17.38,-42.56,1.00,-0.03,0.03,0.06
111.16822957992554,-0.66,-0.36,9.61,0.06,-0.06,0.06,-19.25,18.88,-40.25,1.00,-0.03,0.03,0.06
111.49194312095642,-0.66,-0.37,9.58,0.06,-0.06,0.06,-19.56,18.88,-41.00,1.00,-0.03,0.03,0.06
111.81880784034729,-0.67,-0.36,9.56,0.06,-0.19,0.19,-20.38,18.88,-41.00,1.00,-0.03,0.03,0.06
112.14437174797058,-0.66,-0.37,9.61,0.06,-0.06,-0.13,-18.50,19.25,-40.56,1.00,-0.03,0.03,0.06
112.47032070159912,-0.67,-0.36,9.59,-0.06,0.00,0.06,-19.56,18.06,-40.56,1.00,-0.03,0.03,0.06
112.79895162582397,-0.66,-0.37,9.60,0.00,-0.31,0.06,-19.25,18.50,-39.88,1.00,-0.03,0.03,0.06
113.12178421020508,-0.66,-0.38,9.58,0.00,-0.06,0.00,-18.88,18.88,-39.38,1.00,-0.03,0.03,0.06
113.44890689849854,-0.66,-0.35,9.57,0.00,0.00,0.00,-19.56,18.88,-41.00,1.00,-0.03,0.03,0.06
113.77400875091553,-0.66,-0.36,9.58,-0.06,0.06,-0.25,-18.50,18.88,-41.00,1.00,-0.03,0.03,0.06
114.09819054603577,-0.65,-0.37,9.57,0.00,-0.06,0.00,-19.56,18.06,-40.25,1.00,-0.03,0.03,0.06
114.4250659942627,-0.67,-0.37,9.60,-0.06,0.13,0.00,-19.56,18.50,-40.25,1.00,-0.03,0.03,0.06
114.74988126754761,-0.67,-0.33,9.56,0.06,-0.19,0.00,-19.25,19.25,-40.56,1.00,-0.03,0.03,0.06
115.0778295993805,-0.68,-0.36,9.58,-0.06,-0.13,-0.13,-19.25,19.25,-40.56,1.00,-0.03,0.03,0.06
115.40177702903748,-0.65,-0.37,9.59,-0.06,0.00,0.13,-19.56,18.50,-41.00,1.00,-0.03,0.03,0.06
115.72862482070923,-0.66,-0.37,9.59,0.06,0.00,0.00,-18.88,18.50,-41.00,1.00,-0.03,0.03,0.06
116.05331611633301,-0.67,-0.34,9.58,-0.06,0.13,0.06,-18.88,18.50,-41.38,1.00,-0.03,0.03,0.06
116.38028502464294,-0.66,-0.38,9.59,0.06,-0.13,0.00,-18.88,18.50,-40.25,1.00,-0.03,0.03,0.06
116.7045373916626,-0.66,-0.35,9.58,0.19,0.13,0.25,-19.25,18.88,-40.25,1.00,-0.03,0.03,0.06
117.0320496559143,-0.66,-0.36,9.61,0.00,-0.06,-0.06,-18.88,18.50,-40.25,1.00,-0.03,0.03,0.06
117.35678267478943,-0.64,-0.35,9.59,0.06,0.13,0.13,-18.88,19.56,-41.38,1.00,-0.03,0.03,0.06
117.68378353118896,-0.68,-0.36,9.59,-0.06,-0.06,0.00,-19.25,18.88,-40.56,1.00,-0.03,0.03,0.06
118.00868368148804,-0.66,-0.35,9.59,0.06,0.06,-0.13,-19.56,18.50,-40.56,1.00,-0.03,0.03,0.06
118.33524346351624,-0.67,-0.38,9.60,-0.13,0.13,0.06,-18.88,19.25,-41.00,1.00,-0.03,0.03,0.06
118.66038179397583,-0.65,-0.36,9.57,0.19,0.06,0.13,-18.50,19.56,-41.38,1.00,-0.03,0.03,0.06
118.98734378814697,-0.67,-0.35,9.59,0.06,-0.13,-0.06,-19.25,18.06,-40.25,1.00,-0.03,0.03,0.06
119.31251859664917,-0.65,-0.36,9.56,0.13,-0.06,0.06,-19.56,18.88,-41.00,1.00,-0.03,0.03,0.06
119.6390130519867,-0.65,-0.35,9.59,0.06,-0.25,-0.13,-19.25,19.25,-41.38,1.00,-0.03,0.03,0.06
119.96388387680054,-0.67,-0.37,9.60,0.06,-0.19,0.00,-19.25,19.25,-39.50,1.00,-0.03,0.03,0.06
120.29070448875427,-0.65,-0.35,9.55,-0.13,0.00,-0.06,-18.88,18.88,-41.38,1.00,-0.03,0.03,0.06
120.61557292938232,-0.67,-0.35,9.59,0.06,-0.13,-0.06,-20.00,18.06,-40.56,1.00,-0.03,0.03,0.06
120.94393134117126,-0.65,-0.37,9.57,-0.06,0.13,0.13,-18.88,18.88,-41.00,1.00,-0.03,0.03,0.06
121.26681423187256,-0.67,-0.36,9.59,0.13,-0.19,0.00,-20.00,18.50,-40.25,1.00,-0.03,0.03,0.06
121.59401226043701,-0.67,-0.36,9.60,0.06,0.06,-0.13,-20.00,19.25,-41.38,1.00,-0.03,0.03,0.06
121.91925716400146,-0.66,-0.35,9.59,-0.06,-0.06,-0.06,-20.00,18.06,-40.25,1.00,-0.03,0.03,0.06
122.24880337715149,-0.66,-0.37,9.59,0.00,-0.06,-0.19,-18.88,18.06,-40.56,1.00,-0.03,0.03,0.06
122.57063102722168,-0.67,-0.37,9.60,-0.13,0.00,0.00,-18.88,18.88,-41.38,1.00,-0.03,0.03,0.06
122.89742732048035,-0.63,-0.36,9.58,0.00,0.13,-0.13,-18.50,19.25,-40.56,1.00,-0.03,0.03,0.06
123.22276163101196,-0.67,-0.36,9.60,0.13,0.06,0.06,-20.38,18.88,-40.25,1.00,-0.03,0.03,0.06
123.54959058761597,-0.65,-0.37,9.58,0.06,0.00,-0.13,-18.88,18.50,-41.00,1.00,-0.03,0.03,0.06
123.87396430969238,-0.69,-0.37,9.58,0.06,0.06,-0.06,-19.25,18.88,-41.38,1.00,-0.03,0.03,0.06
124.20085906982422,-0.66,-0.37,9.57,0.00,0.13,-0.06,-19.56,18.06,-40.25,1.00,-0.03,0.03,0.06
124.525545835495,-0.67,-0.35,9.57,-0.06,-0.13,0.19,-19.56,18.88,-41.38,1.00,-0.03,0.03,0.06
124.85245943069458,-0.63,-0.35,9.57,-0.06,0.06,0.06,-18.06,18.50,-40.25,1.00,-0.03,0.03,0.06
125.17729210853577,-0.67,-0.35,9.61,0.13,0.06,0.13,-19.25,18.06,-41.38,1.00,-0.03,0.03,0.06
125.50386929512024,-0.68,-0.34,9.58,-0.06,0.00,0.00,-20.00,18.88,-40.56,1.00,-0.03,0.03,0.06
125.82821035385132,-0.68,-0.35,9.61,0.06,0.19,-0.19,-19.25,19.25,-41.00,1.00,-0.03,0.03,0.06
126.15543913841248,-0.65,-0.34,9.57,0.00,0.06,0.13,-18.50,19.25,-40.25,1.00,-0.03,0.03,0.06
126.48046565055847,-0.66,-0.36,9.58,-0.06,0.00,-0.13,-18.88,18.50,-40.25,1.00,-0.03,0.03,0.06
126.80728363990784,-0.66,-0.36,9.60,-0.06,0.00,0.00,-20.00,19.25,-39.38,1.00,-0.03,0.03,0.06
127.13213634490967,-0.66,-0.38,9.61,-0.13,0.13,0.00,-18.88,18.88,-39.88,1.00,-0.03,0.03,0.06
127.45893740653992,-0.67,-0.36,9.58,0.06,0.00,0.00,-18.88,19.25,-41.00,1.00,-0.03,0.03,0.06
127.78396582603455,-0.66,-0.37,9.61,-0.06,-0.06,0.00,-19.25,18.50,-40.56,1.00,-0.03,0.03,0.06
128.11050748825073,-0.68,-0.36,9.57,0.00,0.00,0.13,-19.56,18.50,-41.00,1.00,-0.03,0.03,0.06
128.43610644340515,-0.65,-0.36,9.57,-0.13,-0.19,-0.06,-20.00,18.50,-41.06,1.00,-0.03,0.03,0.06
128.76255631446838,-0.66,-0.34,9.61,0.13,0.25,0.06,-19.56,19.25,-40.56,1.00,-0.03,0.03,0.06
129.08759117126465,-0.66,-0.35,9.58,-0.13,-0.06,-0.13,-19.56,19.25,-41.38,1.00,-0.03,0.03,0.06
129.415274143219,-0.65,-0.36,9.58,0.00,0.00,0.06,-19.56,18.88,-40.25,1.00,-0.03,0.03,0.06
129.73874759674072,-0.67,-0.34,9.57,0.13,0.13,0.00,-19.25,18.88,-41.38,1.00,-0.03,0.03,0.06
130.06545758247375,-0.68,-0.34,9.61,0.00,0.13,0.00,-20.00,18.50,-40.25,1.00,-0.03,0.03,0.06
130.39034914970398,-0.68,-0.38,9.57,0.06,0.00,0.13,-19.25,18.88,-40.25,1.00,-0.03,0.03,0.06
130.71742963790894,-0.62,-0.35,9.61,-0.06,-0.13,0.06,-19.56,18.50,-41.75,1.00,-0.03,0.03,0.06
131.04265666007996,-0.67,-0.35,9.56,-0.06,-0.06,0.13,-18.88,18.50,-40.56,1.00,-0.03,0.03,0.06
131.36982607841492,-0.66,-0.37,9.58,0.06,-0.06,-0.06,-19.56,18.50,-41.00,1.00,-0.03,0.03,0.06
131.69509029388428,-0.67,-0.34,9.57,-0.06,0.00,-0.06,-18.88,18.50,-39.88,1.00,-0.03,0.03,0.06
132.02229070663452,-0.66,-0.33,9.57,-0.06,-0.19,-0.06,-19.25,18.50,-41.00,1.00,-0.03,0.03,0.06
132.34619879722595,-0.65,-0.35,9.60,0.00,0.19,0.06,-19.25,18.06,-41.06,1.00,-0.03,0.03,0.06
132.6728937625885,-0.66,-0.35,9.59,0.00,0.00,-0.06,-19.25,18.50,-41.06,1.00,-0.03,0.03,0.06
132.99826431274414,-0.68,-0.36,9.59,0.06,0.06,-0.06,-18.88,18.06,-40.56,1.00,-0.03,0.03,0.06
133.32567501068115,-0.67,-0.36,9.59,0.00,0.00,-0.19,-20.00,19.25,-41.38,1.00,-0.03,0.03,0.06
133.64985370635986,-0.67,-0.36,9.57,0.00,0.06,-0.06,-18.50,18.88,-39.88,1.00,-0.03,0.03,0.06
133.97616744041443,-0.68,-0.37,9.57,0.00,0.00,-0.13,-20.00,18.50,-40.56,1.00,-0.03,0.03,0.06
134.30110955238342,-0.66,-0.34,9.56,0.06,0.06,0.00,-18.88,18.88,-40.56,1.00,-0.03,0.03,0.06
134.62794375419617,-0.67,-0.36,9.55,-0.06,0.06,0.06,-18.88,18.88,-40.25,1.00,-0.03,0.03,0.06
134.95242619514465,-0.67,-0.36,9.61,0.06,0.00,0.06,-19.56,18.88,-41.00,1.00,-0.03,0.03,0.06
135.27966356277466,-0.67,-0.37,9.57,-0.06,0.06,0.06,-19.56,18.50,-41.06,1.00,-0.03,0.03,0.06
135.60478377342224,-0.67,-0.35,9.58,-0.06,-0.19,-0.06,-19.25,18.50,-40.25,1.00,-0.03,0.03,0.06
135.93148636817932,-0.65,-0.37,9.60,-0.06,0.06,0.00,-19.25,19.25,-40.56,1.00,-0.03,0.03,0.06
136.25637531280518,-0.66,-0.35,9.56,0.06,0.00,-0.06,-20.00,18.06,-39.50,1.00,-0.03,0.03,0.06
136.58286094665527,-0.67,-0.35,9.58,0.06,0.06,0.00,-19.56,18.50,-41.06,1.00,-0.03,0.03,0.06
136.9076657295227,-0.67,-0.35,9.56,0.00,-0.13,-0.13,-19.56,18.50,-41.06,1.00,-0.03,0.03,0.06
137.23444890975952,-0.67,-0.35,9.54,0.06,0.06,0.13,-19.56,19.25,-41.38,1.00,-0.03,0.03,0.06
137.55924081802368,-0.66,-0.35,9.56,0.00,-0.06,0.00,-18.50,19.25,-41.38,1.00,-0.03,0.03,0.06
137.88613986968994,-0.67,-0.35,9.60,0.00,-0.13,0.06,-20.00,18.88,-39.50,1.00,-0.03,0.03,0.06
138.21154808998108,-0.65,-0.36,9.59,0.00,0.00,0.06,-19.25,18.50,-39.88,1.00,-0.03,0.03,0.06
138.5378839969635,-0.64,-0.36,9.59,-0.06,-0.19,0.00,-19.25,18.50,-40.56,1.00,-0.03,0.03,0.06
138.86387515068054,-0.65,-0.37,9.60,0.00,-0.19,0.00,-19.25,18.88,-40.25,1.00,-0.03,0.03,0.06
139.19018959999084,-0.67,-0.39,9.60,0.00,0.06,0.13,-19.25,18.50,-40.69,1.00,-0.03,0.03,0.06
139.51525712013245,-0.67,-0.36,9.58,0.00,-0.13,-0.13,-19.56,19.25,-40.25,1.00,-0.03,0.03,0.06
139.84298181533813,-0.67,-0.35,9.60,0.00,-0.13,-0.13,-20.00,18.50,-40.69,1.00,-0.03,0.03,0.06
140.1678385734558,-0.67,-0.37,9.58,0.00,-0.06,0.00,-18.88,18.50,-40.56,1.00,-0.03,0.03,0.06
140.49373531341553,-0.64,-0.35,9.59,-0.06,-0.06,0.00,-19.25,18.88,-40.25,1.00,-0.03,0.03,0.06
140.81822776794434,-0.67,-0.36,9.62,0.19,0.13,0.00,-20.00,19.56,-40.25,1.00,-0.03,0.03,0.06
141.14454460144043,-0.67,-0.37,9.55,0.06,0.06,0.00,-19.56,18.88,-40.69,1.00,-0.03,0.03,0.06
141.47005009651184,-0.66,-0.38,9.57,0.00,0.00,0.13,-19.56,18.88,-41.06,1.00,-0.03,0.03,0.06
141.79701232910156,-0.66,-0.35,9.60,-0.06,0.00,0.00,-19.25,18.88,-39.88,1.00,-0.03,0.03,0.06
142.12137174606323,-0.66,-0.36,9.59,0.19,-0.06,0.00,-20.00,18.06,-40.25,1.00,-0.03,0.03,0.06
142.4482340812683,-0.65,-0.35,9.59,0.00,-0.19,0.06,-19.25,18.06,-40.56,1.00,-0.03,0.03,0.06
142.7729742527008,-0.66,-0.38,9.61,0.06,-0.06,0.19,-18.88,18.50,-41.38,1.00,-0.03,0.03,0.06
143.09985756874084,-0.67,-0.35,9.56,0.06,0.06,0.06,-19.25,18.06,-41.06,1.00,-0.03,0.03,0.06
143.42494869232178,-0.66,-0.36,9.57,-0.06,0.00,0.00,-19.25,18.88,-39.88,1.00,-0.03,0.03,0.06
143.75239515304565,-0.66,-0.34,9.58,0.06,0.00,0.00,-18.88,18.50,-40.25,1.00,-0.03,0.03,0.06
144.07628726959229,-0.62,-0.38,9.59,0.00,-0.06,0.06,-18.06,18.50,-39.88,1.00,-0.03,0.03,0.06
144.40326809883118,-0.65,-0.36,9.58,-0.06,0.13,0.00,-19.56,19.25,-41.06,1.00,-0.03,0.03,0.06
144.72868037223816,-0.67,-0.36,9.59,-0.06,-0.13,-0.06,-18.50,17.75,-40.25,1.00,-0.03,0.03,0.06
145.0550127029419,-0.65,-0.37,9.61,0.00,0.00,0.13,-18.50,18.88,-40.69,1.00,-0.03,0.03,0.06
145.38089275360107,-0.66,-0.36,9.58,-0.06,0.00,0.06,-18.50,18.88,-40.69,1.00,-0.03,0.03,0.06
145.70693707466125,-0.65,-0.34,9.59,0.00,-0.06,0.06,-19.56,18.88,-42.19,1.00,-0.03,0.03,0.06
146.03215169906616,-0.69,-0.35,9.59,0.00,0.06,0.13,-20.00,18.88,-41.38,1.00,-0.03,0.03,0.06
146.3585512638092,-0.66,-0.35,9.57,0.19,-0.13,0.19,-19.56,19.25,-40.25,1.00,-0.03,0.03,0.06
146.68335580825806,-0.67,-0.36,9.60,0.06,0.06,-0.13,-19.25,18.50,-41.75,1.00,-0.03,0.03,0.06
147.01067996025085,-0.66,-0.36,9.56,-0.06,-0.25,-0.13,-18.88,18.50,-41.75,1.00,-0.03,0.03,0.06
147.3359375,-0.65,-0.36,9.58,-0.13,0.06,-0.19,-18.88,18.50,-39.88,1.00,-0.03,0.03,0.06
147.66219758987427,-0.66,-0.37,9.58,-0.06,-0.13,0.00,-19.56,18.88,-41.06,1.00,-0.03,0.03,0.06
147.9870891571045,-0.65,-0.36,9.59,-0.06,-0.13,0.00,-20.00,18.50,-40.69,1.00,-0.03,0.03,0.06
148.3149073123932,-0.66,-0.37,9.57,0.00,-0.25,0.13,-19.25,18.50,-39.88,1.00,-0.03,0.03,0.06
148.6385452747345,-0.66,-0.38,9.61,0.06,-0.19,0.06,-19.56,18.06,-40.69,1.00,-0.03,0.03,0.06
148.96566438674927,-0.67,-0.36,9.57,-0.06,0.06,0.00,-19.25,17.75,-40.69,1.00,-0.03,0.03,0.06
149.29000759124756,-0.65,-0.38,9.61,0.00,-0.13,0.00,-20.38,19.25,-41.06,1.00,-0.03,0.03,0.06
149.61691975593567,-0.67,-0.35,9.61,0.00,0.06,0.00,-19.25,19.25,-41.06,1.00,-0.03,0.03,0.06
149.94190955162048,-0.66,-0.36,9.59,-0.06,-0.19,-0.06,-19.56,18.06,-41.06,1.00,-0.03,0.03,0.06
150.2683584690094,-0.66,-0.35,9.59,0.00,0.19,0.06,-19.56,18.50,-40.25,1.00,-0.03,0.03,0.06
150.59363627433777,-0.66,-0.33,9.56,-0.13,-0.06,0.06,-18.50,18.88,-39.50,1.00,-0.03,0.03,0.06
150.9201385974884,-0.69,-0.37,9.60,0.13,0.13,-0.06,-19.56,18.88,-40.69,1.00,-0.03,0.03,0.06
151.24490690231323,-0.64,-0.35,9.60,-0.19,-0.06,0.00,-19.56,18.50,-40.69,1.00,-0.03,0.03,0.06
151.57199454307556,-0.67,-0.37,9.57,-0.06,-0.06,0.06,-18.50,18.88,-41.38,1.00,-0.03,0.03,0.06
151.89681339263916,-0.64,-0.38,9.57,-0.13,0.00,0.00,-19.56,18.50,-41.38,1.00,-0.03,0.03,0.06
152.22345614433289,-0.67,-0.37,9.59,0.00,0.00,0.00,-19.56,18.88,-39.50,1.00,-0.03,0.03,0.06
152.54768538475037,-0.67,-0.34,9.57,0.00,-0.19,0.00,-19.56,18.50,-41.06,1.00,-0.03,0.03,0.06
152.87480926513672,-0.66,-0.35,9.57,0.00,0.13,0.00,-18.50,18.50,-40.69,1.00,-0.03,0.03,0.06
153.19976162910461,-0.67,-0.36,9.60,-0.06,-0.19,0.00,-20.00,18.88,-41.06,1.00,-0.03,0.03,0.06
153.52646017074585,-0.66,-0.37,9.58,-0.06,0.00,0.19,-19.25,19.25,-41.38,1.00,-0.03,0.03,0.06
153.85155653953552,-0.66,-0.36,9.58,-0.06,-0.06,-0.06,-19.25,18.88,-38.75,1.00,-0.03,0.03,0.06
154.17820119857788,-0.66,-0.34,9.56,0.06,-0.19,0.00,-18.88,18.50,-41.38,1.00,-0.03,0.03,0.06
154.5029296875,-0.67,-0.35,9.57,0.00,-0.06,0.00,-19.56,17.75,-41.38,1.00,-0.03,0.03,0.06
154.83036398887634,-0.67,-0.33,9.60,-0.06,-0.06,0.06,-18.88,18.50,-41.38,1.00,-0.03,0.03,0.06
155.15444827079773,-0.65,-0.36,9.57,-0.13,0.19,-0.13,-20.00,18.88,-40.25,1.00,-0.03,0.03,0.06
155.48133945465088,-0.67,-0.37,9.62,-0.06,0.00,0.13,-19.25,18.50,-40.25,1.00,-0.03,0.03,0.06
155.80601453781128,-0.65,-0.36,9.60,0.00,-0.06,0.00,-19.25,18.88,-40.69,1.00,-0.03,0.03,0.06
156.13335466384888,-0.67,-0.35,9.57,-0.06,-0.13,0.00,-18.88,18.06,-40.69,1.00,-0.03,0.03,0.06
156.45769619941711,-0.67,-0.35,9.60,-0.06,0.06,0.06,-18.88,18.88,-41.06,1.00,-0.03,0.03,0.06
156.78905963897705,-0.69,-0.36,9.56,0.00,0.13,-0.06,-20.38,19.56,-39.50,1.00,-0.03,0.03,0.06
157.11154127120972,-0.68,-0.36,9.59,-0.13,-0.13,0.00,-19.25,18.06,-41.75,1.00,-0.03,0.03,0.06
157.43642616271973,-0.68,-0.36,9.56,0.00,-0.06,-0.06,-18.50,18.50,-41.06,1.00,-0.03,0.03,0.06
157.76154088974,-0.66,-0.35,9.58,-0.06,0.06,-0.06,-19.56,18.88,-39.88,1.00,-0.03,0.03,0.06
158.08872604370117,-0.66,-0.34,9.59,-0.06,-0.06,0.00,-19.56,17.00,-40.69,1.00,-0.03,0.03,0.06
158.41565680503845,-0.67,-0.38,9.61,0.06,0.00,-0.13,-20.00,18.50,-40.25,1.00,-0.03,0.03,0.06
158.73978900909424,-0.66,-0.38,9.63,0.06,-0.06,-0.06,-18.88,17.75,-38.75,1.00,-0.03,0.03,0.06
159.0649287700653,-0.65,-0.35,9.58,0.00,0.00,-0.06,-19.25,19.25,-39.50,1.00,-0.03,0.03,0.06
159.39212679862976,-0.66,-0.35,9.58,-0.06,-0.06,-0.06,-20.38,18.50,-39.50,1.00,-0.03,0.03,0.06
159.7186028957367,-0.66,-0.36,9.58,0.00,0.13,0.00,-18.50,18.88,-39.88,1.00,-0.03,0.03,0.06
160.04384469985962,-0.64,-0.37,9.54,0.06,0.13,-0.13,-18.88,18.88,-40.25,1.00,-0.03,0.03,0.06
160.36826515197754,-0.67,-0.37,9.59,0.00,0.00,0.00,-19.25,18.50,-40.25,1.00,-0.03,0.03,0.06
160.69441771507263,-0.66,-0.35,9.56,0.13,0.19,0.00,-19.25,18.06,-41.75,1.00,-0.03,0.03,0.06
161.01998782157898,-0.66,-0.35,9.59,0.00,-0.06,-0.06,-19.25,18.88,-40.69,1.00,-0.03,0.03,0.06
161.34656047821045,-0.67,-0.36,9.57,0.06,-0.25,0.00,-19.25,18.50,-41.88,1.00,-0.03,0.03,0.06
161.6713526248932,-0.67,-0.35,9.56,0.00,-0.06,0.00,-19.25,18.50,-41.38,1.00,-0.03,0.03,0.06
161.99863123893738,-0.68,-0.35,9.60,0.00,0.00,0.00,-19.56,18.50,-41.06,1.00,-0.03,0.03,0.06
162.32263708114624,-0.67,-0.36,9.59,0.00,0.06,0.00,-19.25,18.88,-41.38,1.00,-0.03,0.03,0.06
162.65042638778687,-0.67,-0.35,9.56,0.00,0.13,0.00,-19.25,18.50,-41.06,1.00,-0.03,0.03,0.06
162.9742500782013,-0.67,-0.36,9.57,0.00,0.00,-0.13,-19.25,19.25,-40.69,1.00,-0.03,0.03,0.06
163.30169224739075,-0.66,-0.36,9.55,0.00,0.06,-0.06,-19.56,18.06,-40.69,1.00,-0.03,0.03,0.06
163.62651920318604,-0.67,-0.37,9.59,-0.13,-0.19,0.00,-20.75,17.38,-40.69,1.00,-0.03,0.03,0.06
163.9537534713745,-0.66,-0.35,9.57,0.06,-0.06,0.00,-19.56,19.25,-40.69,1.00,-0.03,0.03,0.06
164.27818489074707,-0.68,-0.36,9.58,0.00,-0.06,0.00,-19.25,19.25,-41.38,1.00,-0.03,0.03,0.06
164.6054651737213,-0.66,-0.36,9.60,0.00,0.19,0.00,-19.56,19.25,-41.06,1.00,-0.03,0.03,0.06
164.9299750328064,-0.64,-0.35,9.57,0.00,-0.31,0.00,-19.25,18.50,-40.69,1.00,-0.03,0.03,0.06
165.25689387321472,-0.67,-0.37,9.57,0.06,0.19,0.00,-19.56,17.75,-39.88,1.00,-0.03,0.03,0.06
165.58183002471924,-0.67,-0.34,9.59,0.13,0.06,-0.13,-20.00,18.88,-41.06,1.00,-0.03,0.03,0.06
165.9090518951416,-0.67,-0.34,9.58,-0.06,0.06,0.00,-19.56,18.88,-39.88,1.00,-0.03,0.03,0.06
166.23352336883545,-0.66,-0.35,9.60,-0.13,0.00,0.06,-19.56,18.50,-40.69,1.00,-0.03,0.03,0.06
166.56084156036377,-0.65,-0.38,9.57,-0.19,-0.19,0.06,-19.25,18.50,-41.06,1.00,-0.03,0.03,0.06
166.8857705593109,-0.66,-0.34,9.59,-0.06,0.13,-0.06,-19.25,18.88,-39.50,1.00,-0.03,0.03,0.06
167.21280574798584,-0.65,-0.37,9.58,0.00,-0.13,0.13,-19.56,18.50,-40.69,1.00,-0.03,0.03,0.06
167.53755021095276,-0.66,-0.37,9.59,0.00,0.00,0.00,-19.25,18.50,-41.88,1.00,-0.03,0.03,0.06
167.8645384311676,-0.67,-0.36,9.59,0.00,-0.13,0.13,-19.56,19.25,-41.06,1.00,-0.03,0.03,0.06
168.18908715248108,-0.67,-0.37,9.60,-0.06,0.19,0.00,-19.56,17.75,-40.25,1.00,-0.03,0.03,0.06
168.5164713859558,-0.65,-0.36,9.55,-0.19,-0.06,-0.13,-19.56,18.88,-41.06,1.00,-0.03,0.03,0.06
168.84141969680786,-0.67,-0.38,9.58,0.13,-0.13,0.00,-19.25,18.06,-41.38,1.00,-0.03,0.03,0.06
169.1680929660797,-0.64,-0.36,9.57,0.00,0.19,-0.06,-20.38,18.88,-41.06,1.00,-0.03,0.03,0.06
169.4932200908661,-0.67,-0.35,9.58,0.00,-0.06,0.00,-18.88,19.56,-41.06,1.00,-0.03,0.03,0.06
169.82025408744812,-0.69,-0.35,9.57,-0.06,0.13,0.13,-19.56,18.88,-40.69,1.00,-0.03,0.03,0.06
170.1443853378296,-0.66,-0.36,9.61,-0.06,0.00,-0.06,-18.88,18.50,-39.88,1.00,-0.03,0.03,0.06
170.47161388397217,-0.67,-0.36,9.57,-0.06,0.06,0.00,-19.56,18.50,-41.38,1.00,-0.03,0.03,0.06
170.79561138153076,-0.64,-0.35,9.59,-0.06,0.00,-0.06,-19.25,19.25,-39.88,1.00,-0.03,0.03,0.06
171.12253713607788,-0.67,-0.36,9.59,0.00,0.06,0.00,-19.25,18.06,-40.25,1.00,-0.03,0.03,0.06
171.44805264472961,-0.67,-0.36,9.55,-0.19,0.00,0.00,-18.88,18.88,-39.50,1.00,-0.03,0.03,0.06
171.77548241615295,-0.69,-0.36,9.59,-0.06,0.00,0.06,-18.88,18.50,-40.25,1.00,-0.03,0.03,0.06
172.09976148605347,-0.65,-0.38,9.60,-0.19,0.06,0.06,-18.88,18.88,-40.69,1.00,-0.03,0.03,0.06
172.4264554977417,-0.66,-0.35,9.58,0.06,-0.13,0.06,-18.88,18.50,-41.88,1.00,-0.03,0.03,0.06
172.75137948989868,-0.66,-0.36,9.60,0.00,0.06,0.06,-20.38,18.06,-41.06,1.00,-0.03,0.03,0.06
173.07756805419922,-0.67,-0.35,9.58,0.00,0.06,0.00,-18.88,18.50,-41.06,1.00,-0.03,0.03,0.06
173.40248656272888,-0.68,-0.36,9.58,-0.13,0.00,0.13,-19.56,18.50,-40.69,1.00,-0.03,0.03,0.06
173.73024725914001,-0.66,-0.37,9.59,-0.13,0.00,0.00,-19.56,19.25,-41.06,1.00,-0.03,0.03,0.06
174.05511212348938,-0.67,-0.34,9.59,-0.06,-0.13,0.13,-20.00,18.88,-40.69,1.00,-0.03,0.03,0.06
174.3822705745697,-0.66,-0.36,9.55,0.13,-0.06,0.06,-20.00,18.50,-40.69,1.00,-0.03,0.03,0.06
174.7062475681305,-0.63,-0.37,9.58,0.00,-0.13,-0.06,-19.56,18.50,-40.25,1.00,-0.03,0.03,0.06
175.033367395401,-0.63,-0.36,9.59,0.00,-0.06,0.06,-19.56,18.50,-40.69,1.00,-0.03,0.03,0.06
175.35886096954346,-0.67,-0.35,9.60,0.00,-0.13,-0.06,-19.56,18.50,-40.69,1.00,-0.03,0.03,0.06
175.68532180786133,-0.67,-0.36,9.59,0.00,-0.19,0.06,-18.88,18.50,-40.69,1.00,-0.03,0.03,0.06
176.00982666015625,-0.64,-0.35,9.58,0.06,0.00,-0.06,-20.00,18.88,-40.69,1.00,-0.03,0.03,0.06
176.3378586769104,-0.67,-0.38,9.56,0.06,-0.13,0.06,-19.25,18.50,-39.88,1.00,-0.03,0.03,0.06
176.66133284568787,-0.66,-0.38,9.59,0.00,0.06,0.13,-20.00,18.88,-41.06,1.00,-0.03,0.03,0.06
176.9892120361328,-0.66,-0.37,9.57,0.00,-0.25,-0.06,-19.25,18.06,-41.06,1.00,-0.03,0.03,0.06
177.3132882118225,-0.67,-0.36,9.57,0.13,0.00,-0.06,-19.25,18.50,-40.69,1.00,-0.03,0.03,0.06
177.6422095298767,-0.65,-0.36,9.56,0.06,-0.19,0.00,-19.56,18.50,-41.88,1.00,-0.03,0.03,0.06
177.96542382240295,-0.68,-0.37,9.60,-0.06,0.13,0.06,-20.00,18.50,-41.88,1.00,-0.03,0.03,0.06
178.29195833206177,-0.67,-0.36,9.61,-0.06,-0.06,0.00,-18.88,18.88,-40.25,1.00,-0.03,0.03,0.06
178.61671328544617,-0.67,-0.38,9.59,-0.06,0.00,0.06,-19.25,18.88,-41.06,1.00,-0.03,0.03,0.06
178.9439194202423,-0.67,-0.35,9.57,-0.06,-0.25,0.06,-19.25,18.50,-39.56,1.00,-0.03,0.03,0.06
179.26879835128784,-0.64,-0.36,9.56,0.13,-0.06,0.13,-19.25,18.88,-40.69,1.00,-0.03,0.03,0.06
179.5952112674713,-0.65,-0.34,9.60,0.13,-0.06,0.00,-18.88,19.25,-39.88,1.00,-0.03,0.03,0.06
179.92038798332214,-0.66,-0.36,9.58,-0.06,0.00,0.00,-21.06,18.88,-41.06,1.00,-0.03,0.03,0.06
180.2471466064453,-0.68,-0.35,9.57,0.00,0.06,0.13,-19.25,18.88,-41.06,1.00,-0.03,0.03,0.06
180.57189321517944,-0.67,-0.37,9.59,0.00,-0.06,0.19,-19.56,18.88,-40.25,1.00,-0.03,0.03,0.06
180.90071201324463,-0.67,-0.36,9.60,-0.13,0.00,-0.06,-18.88,18.88,-41.50,1.00,-0.03,0.03,0.06
181.22333812713623,-0.68,-0.36,9.61,0.00,-0.06,-0.06,-19.25,18.06,-40.69,1.00,-0.03,0.03,0.06
181.55053400993347,-0.66,-0.38,9.58,0.00,0.06,-0.06,-19.25,19.25,-40.69,1.00,-0.03,0.03,0.06
181.87552857398987,-0.66,-0.35,9.56,0.00,0.13,0.00,-18.88,19.56,-41.50,1.00,-0.03,0.03,0.06
182.20197319984436,-0.65,-0.37,9.59,0.00,0.13,0.00,-19.25,18.88,-41.06,1.00,-0.03,0.03,0.06
182.52687788009644,-0.68,-0.34,9.57,0.13,-0.06,0.00,-19.56,18.88,-41.06,1.00,-0.03,0.03,0.06
182.85523748397827,-0.67,-0.35,9.57,-0.06,-0.06,0.00,-19.56,18.88,-41.50,1.00,-0.03,0.03,0.06
183.17965865135193,-0.65,-0.36,9.57,0.06,-0.13,0.13,-19.25,19.25,-40.25,1.00,-0.03,0.03,0.06
183.50667071342468,-0.67,-0.36,9.59,-0.06,-0.13,0.00,-19.56,18.88,-41.06,1.00,-0.03,0.03,0.06
183.83143377304077,-0.66,-0.36,9.60,0.00,-0.13,-0.06,-19.56,18.50,-39.88,1.00,-0.03,0.03,0.06
184.1572823524475,-0.67,-0.37,9.59,0.00,0.19,0.00,-19.25,18.50,-40.25,1.00,-0.03,0.03,0.06
184.48192596435547,-0.67,-0.35,9.58,0.00,0.13,0.06,-19.25,18.06,-40.69,1.00,-0.03,0.03,0.06
184.80889415740967,-0.67,-0.38,9.56,-0.06,0.19,0.00,-19.25,18.88,-41.06,1.00,-0.03,0.03,0.06
185.1335334777832,-0.64,-0.37,9.58,0.13,0.00,0.06,-19.25,18.88,-41.06,1.00,-0.03,0.03,0.06
185.46077799797058,-0.67,-0.37,9.60,0.06,-0.19,-0.06,-18.88,18.88,-41.50,1.00,-0.03,0.03,0.06
185.78572273254395,-0.68,-0.36,9.61,0.00,0.06,0.06,-18.88,18.50,-41.06,1.00,-0.03,0.03,0.06
186.1129448413849,-0.65,-0.36,9.57,-0.06,-0.19,0.06,-19.56,19.25,-39.88,1.00,-0.03,0.03,0.06
186.4379096031189,-0.65,-0.36,9.57,0.00,-0.19,-0.13,-19.25,18.88,-41.50,1.00,-0.03,0.03,0.06
186.76481914520264,-0.67,-0.36,9.56,0.00,-0.06,0.06,-20.00,19.25,-40.69,1.00,-0.03,0.03,0.06
187.0896348953247,-0.65,-0.36,9.58,-0.06,-0.06,-0.06,-19.25,18.50,-41.06,1.00,-0.03,0.03,0.06
187.4165699481964,-0.68,-0.38,9.57,0.00,0.06,-0.06,-19.56,18.50,-40.25,1.00,-0.03,0.03,0.06
187.74093580245972,-0.65,-0.36,9.61,0.13,-0.06,0.00,-19.25,18.50,-40.69,1.00,-0.03,0.03,0.06
188.06835436820984,-0.65,-0.38,9.58,-0.13,0.13,0.00,-19.25,18.50,-41.88,1.00,-0.03,0.03,0.06
188.39287519454956,-0.65,-0.36,9.58,0.13,-0.19,0.06,-19.25,17.38,-39.88,1.00,-0.03,0.03,0.06
188.71982860565186,-0.66,-0.36,9.56,0.06,0.00,0.06,-18.88,18.06,-41.50,1.00,-0.03,0.03,0.06
189.0453658103943,-0.66,-0.38,9.60,0.06,-0.13,-0.06,-18.88,18.50,-40.69,1.00,-0.03,0.03,0.06
189.3716697692871,-0.66,-0.36,9.59,0.00,-0.06,-0.06,-19.25,18.50,-39.88,1.00,-0.03,0.03,0.06
189.69772744178772,-0.65,-0.36,9.60,-0.06,0.13,0.00,-18.88,18.50,-40.25,1.00,-0.03,0.03,0.06
190.02335667610168,-0.67,-0.38,9.60,0.13,0.13,0.13,-18.88,19.25,-41.88,1.00,-0.03,0.03,0.06
190.35012340545654,-0.65,-0.37,9.58,0.06,0.00,0.00,-20.38,18.06,-40.69,1.00,-0.03,0.03,0.06
190.67608284950256,-0.66,-0.35,9.57,0.06,-0.06,-0.13,-19.25,18.50,-39.88,1.00,-0.03,0.03,0.06
191.00342893600464,-0.67,-0.35,9.61,0.06,0.00,0.13,-19.56,18.50,-41.88,1.00,-0.03,0.03,0.06
191.3284080028534,-0.67,-0.35,9.56,-0.13,0.19,-0.06,-19.56,18.88,-40.75,1.00,-0.03,0.03,0.06
191.6517210006714,-0.66,-0.36,9.57,0.06,-0.13,0.06,-20.00,18.88,-40.75,1.00,-0.03,0.03,0.06
191.97916436195374,-0.64,-0.37,9.60,-0.06,0.19,0.06,-19.25,18.50,-40.75,1.00,-0.03,0.03,0.06
192.30307245254517,-0.68,-0.35,9.58,0.06,0.06,0.13,-19.56,19.25,-41.06,1.00,-0.03,0.03,0.06
192.63066148757935,-0.66,-0.34,9.61,-0.06,0.06,0.00,-19.56,18.88,-41.88,1.00,-0.03,0.03,0.06
192.95495200157166,-0.67,-0.35,9.57,0.13,-0.06,0.19,-20.38,18.06,-40.25,1.00,-0.03,0.03,0.06
193.28194856643677,-0.67,-0.38,9.59,0.06,-0.19,-0.13,-19.56,18.88,-40.69,1.00,-0.03,0.03,0.06
193.6067419052124,-0.66,-0.36,9.58,0.13,0.00,-0.06,-18.88,18.06,-41.06,1.00,-0.03,0.03,0.06
193.93411540985107,-0.66,-0.36,9.61,0.00,-0.25,-0.06,-18.88,18.88,-41.88,1.00,-0.03,0.03,0.06
194.25972986221313,-0.66,-0.36,9.54,-0.06,-0.13,-0.13,-18.88,18.88,-41.06,1.00,-0.03,0.03,0.06
194.58642411231995,-0.67,-0.37,9.57,-0.13,-0.06,-0.06,-19.25,19.25,-41.06,1.00,-0.03,0.03,0.06
194.9111406803131,-0.66,-0.35,9.61,-0.13,-0.13,-0.06,-19.25,18.88,-40.75,1.00,-0.03,0.03,0.06
195.2374083995819,-0.65,-0.36,9.56,-0.13,0.00,0.06,-19.25,19.25,-40.75,1.00,-0.03,0.03,0.06
195.5625445842743,-0.67,-0.36,9.59,-0.06,-0.13,-0.06,-18.88,18.06,-40.25,1.00,-0.03,0.03,0.06
195.88856434822083,-0.67,-0.35,9.60,0.00,0.19,0.13,-18.88,18.50,-41.06,1.00,-0.03,0.03,0.06
196.21377873420715,-0.64,-0.37,9.58,0.00,0.00,-0.06,-19.56,18.50,-40.75,1.00,-0.03,0.03,0.06
196.54026794433594,-0.66,-0.35,9.58,-0.06,0.00,0.06,-18.88,17.75,-40.25,1.00,-0.03,0.03,0.06
196.86528277397156,-0.66,-0.36,9.61,0.06,-0.06,0.06,-19.56,18.88,-39.88,1.00,-0.03,0.03,0.06
197.19192504882812,-0.67,-0.35,9.58,-0.13,0.06,0.13,-18.50,18.50,-40.69,1.00,-0.03,0.03,0.06
197.51765704154968,-0.67,-0.36,9.57,0.00,0.00,0.13,-18.50,18.88,-41.06,1.00,-0.03,0.03,0.06
197.84339880943298,-0.63,-0.37,9.60,0.06,0.06,0.06,-20.00,17.75,-39.88,1.00,-0.03,0.03,0.06
198.16863441467285,-0.66,-0.36,9.59,-0.13,-0.19,0.00,-19.56,18.88,-42.69,1.00,-0.03,0.03,0.06
198.49492001533508,-0.66,-0.38,9.58,-0.06,0.06,-0.06,-19.56,18.50,-40.75,1.00,-0.03,0.03,0.06
198.8200879096985,-0.67,-0.34,9.59,0.13,0.00,0.13,-19.56,18.06,-39.88,1.00,-0.03,0.03,0.06
199.14682388305664,-0.65,-0.37,9.58,0.00,0.00,0.06,-19.25,18.50,-39.88,1.00,-0.03,0.03,0.06
199.4724907875061,-0.67,-0.37,9.61,0.06,0.06,0.00,-20.00,19.25,-40.25,1.00,-0.03,0.03,0.06
199.799462556839,-0.68,-0.39,9.59,0.00,0.06,0.06,-19.56,18.88,-40.25,1.00,-0.03,0.03,0.06
200.12326431274414,-0.66,-0.35,9.59,-0.13,0.06,0.13,-19.25,18.88,-39.88,1.00,-0.03,0.03,0.06
200.45016145706177,-0.69,-0.36,9.58,0.06,-0.06,0.06,-19.25,18.50,-40.75,1.00,-0.03,0.03,0.06
200.7747766971588,-0.67,-0.40,9.59,0.19,0.06,0.00,-20.00,19.25,-40.75,1.00,-0.03,0.03,0.06
201.10186553001404,-0.66,-0.36,9.59,0.06,-0.06,0.06,-20.00,18.88,-40.25,1.00,-0.03,0.03,0.06
201.4267075061798,-0.67,-0.37,9.59,-0.13,0.00,-0.13,-18.88,18.50,-41.50,1.00,-0.03,0.03,0.06
201.75341820716858,-0.65,-0.34,9.54,0.06,0.00,0.13,-19.56,18.06,-42.25,1.00,-0.03,0.03,0.06
202.07868218421936,-0.66,-0.38,9.59,-0.13,0.06,0.00,-19.56,18.50,-41.88,1.00,-0.03,0.03,0.06
202.4063572883606,-0.67,-0.38,9.60,0.00,0.00,0.06,-18.06,18.50,-40.69,1.00,-0.03,0.03,0.06
202.72986221313477,-0.69,-0.36,9.62,-0.06,0.19,0.00,-19.25,18.88,-42.25,1.00,-0.03,0.03,0.06
203.05764389038086,-0.67,-0.35,9.58,-0.06,-0.13,0.00,-19.25,18.06,-40.25,1.00,-0.03,0.03,0.06
203.38230180740356,-0.67,-0.36,9.57,-0.06,-0.06,0.06,-18.88,19.25,-40.75,1.00,-0.03,0.03,0.06
203.70854997634888,-0.67,-0.35,9.58,-0.13,0.06,0.00,-19.56,18.88,-40.38,1.00,-0.03,0.03,0.06
204.0344202518463,-0.67,-0.35,9.55,-0.13,-0.19,-0.06,-19.56,18.50,-41.50,1.00,-0.03,0.03,0.06
204.36072993278503,-0.67,-0.36,9.60,-0.06,0.25,0.13,-19.25,18.50,-41.06,1.00,-0.03,0.03,0.06
204.68508434295654,-0.67,-0.36,9.58,-0.06,0.06,0.00,-18.88,18.88,-40.25,1.00,-0.03,0.03,0.06
205.01262068748474,-0.64,-0.37,9.61,-0.06,0.06,0.06,-19.25,18.88,-40.25,1.00,-0.03,0.03,0.06
205.33730578422546,-0.66,-0.37,9.56,-0.06,0.00,-0.06,-19.56,18.88,-40.38,1.00,-0.03,0.03,0.06
205.6639838218689,-0.67,-0.35,9.62,0.06,0.06,0.06,-19.25,17.75,-39.88,1.00,-0.03,0.03,0.06
205.98861169815063,-0.66,-0.36,9.61,-0.19,0.13,0.00,-19.56,18.06,-42.25,1.00,-0.03,0.03,0.06
206.31554794311523,-0.67,-0.36,9.60,-0.13,-0.13,-0.06,-19.25,18.50,-39.88,1.00,-0.03,0.03,0.06
206.64070415496826,-0.67,-0.34,9.61,0.06,0.06,0.06,-19.25,18.50,-41.50,1.00,-0.03,0.03,0.06
206.96782183647156,-0.66,-0.37,9.59,-0.06,-0.06,-0.19,-19.25,18.88,-40.75,1.00,-0.03,0.03,0.06
207.29466223716736,-0.68,-0.35,9.59,0.06,0.13,-0.06,-19.56,18.50,-41.50,1.00,-0.03,0.03,0.06
207.6202986240387,-0.65,-0.36,9.58,-0.13,-0.06,-0.25,-19.25,18.50,-40.75,1.00,-0.03,0.03,0.06
207.9452679157257,-0.67,-0.34,9.61,0.06,0.25,0.00,-19.56,18.06,-40.38,1.00,-0.03,0.03,0.06
208.2723104953766,-0.67,-0.34,9.59,-0.06,-0.13,0.00,-19.25,18.88,-39.88,1.00,-0.03,0.03,0.06
208.59643983840942,-0.66,-0.37,9.61,0.13,-0.06,0.00,-19.56,18.88,-40.38,1.00,-0.03,0.03,0.06
208.9229772090912,-0.67,-0.35,9.57,-0.13,0.00,-0.06,-18.88,18.88,-41.06,1.00,-0.03,0.03,0.06
209.24775648117065,-0.66,-0.36,9.60,0.06,-0.06,-0.06,-18.88,18.50,-40.75,1.00,-0.03,0.03,0.06
209.57420015335083,-0.68,-0.38,9.57,-0.13,0.13,0.06,-18.50,18.50,-41.06,1.00,-0.03,0.03,0.06
209.90169429779053,-0.65,-0.36,9.59,-0.06,0.00,0.06,-18.88,19.25,-41.50,1.00,-0.03,0.03,0.06
210.2256178855896,-0.67,-0.34,9.57,0.00,-0.19,0.00,-19.25,18.50,-39.56,1.00,-0.03,0.03,0.06
210.55046892166138,-0.66,-0.36,9.57,0.00,0.00,-0.19,-18.88,18.50,-40.38,1.00,-0.03,0.03,0.06
210.87884497642517,-0.67,-0.36,9.57,0.06,-0.13,-0.06,-19.25,18.06,-39.19,1.00,-0.03,0.03,0.06
211.20440578460693,-0.67,-0.37,9.58,0.00,-0.06,0.00,-19.25,18.88,-40.75,1.00,-0.03,0.03,0.06
211.5298044681549,-0.67,-0.37,9.60,0.06,0.13,0.19,-19.56,18.50,-41.50,1.00,-0.03,0.03,0.06
211.85495495796204,-0.66,-0.36,9.57,-0.06,-0.13,0.06,-18.88,17.75,-40.25,1.00,-0.03,0.03,0.06
212.18077087402344,-0.67,-0.36,9.60,-0.13,-0.19,0.06,-19.56,18.50,-41.06,1.00,-0.03,0.03,0.06
212.50603342056274,-0.67,-0.37,9.57,-0.06,-0.06,0.00,-19.25,18.06,-40.75,1.00,-0.03,0.03,0.06
212.83374524116516,-0.67,-0.37,9.59,-0.06,0.13,0.06,-19.56,18.88,-40.75,1.00,-0.03,0.03,0.06
213.1605203151703,-0.67,-0.37,9.57,0.06,-0.19,-0.13,-18.88,18.88,-40.75,1.00,-0.03,0.03,0.06
213.48482871055603,-0.65,-0.37,9.58,-0.06,-0.13,0.06,-18.06,18.88,-41.50,1.00,-0.03,0.03,0.06
213.8098590373993,-0.68,-0.36,9.58,-0.06,-0.25,0.06,-19.25,18.50,-39.88,1.00,-0.03,0.03,0.06
214.13688111305237,-0.66,-0.36,9.55,0.00,-0.13,-0.06,-18.88,18.88,-40.38,1.00,-0.03,0.03,0.06
214.46172785758972,-0.67,-0.36,9.59,-0.06,0.13,0.00,-18.88,18.50,-41.50,1.00,-0.03,0.03,0.06
214.78797960281372,-0.66,-0.37,9.55,-0.13,0.00,0.06,-20.00,18.50,-41.06,1.00,-0.03,0.03,0.06
215.1126103401184,-0.66,-0.35,9.60,-0.06,-0.06,0.06,-20.00,18.50,-40.38,1.00,-0.03,0.03,0.06
215.4397075176239,-0.67,-0.33,9.60,0.00,0.06,0.00,-18.50,18.50,-40.75,1.00,-0.03,0.03,0.06
215.76448822021484,-0.63,-0.37,9.58,-0.06,0.00,0.00,-19.25,18.06,-40.38,1.00,-0.03,0.03,0.06
216.09113669395447,-0.67,-0.36,9.56,0.13,-0.06,0.00,-19.25,18.88,-40.38,1.00,-0.03,0.03,0.06
216.4162814617157,-0.66,-0.34,9.57,0.13,-0.19,0.06,-18.88,18.88,-41.06,1.00,-0.03,0.03,0.06
216.7432565689087,-0.67,-0.36,9.57,-0.06,0.00,-0.06,-19.56,18.88,-39.88,1.00,-0.03,0.03,0.06
217.06871008872986,-0.65,-0.36,9.57,-0.13,-0.06,-0.06,-18.88,18.06,-40.38,1.00,-0.03,0.03,0.06
217.39551162719727,-0.66,-0.35,9.58,-0.06,-0.13,0.13,-19.56,18.88,-40.38,1.00,-0.03,0.03,0.06
217.7200300693512,-0.66,-0.36,9.58,0.00,-0.25,0.00,-19.25,18.88,-40.38,1.00,-0.03,0.03,0.06
218.04698300361633,-0.67,-0.36,9.59,-0.06,0.00,0.06,-18.88,18.50,-40.00,1.00,-0.03,0.03,0.06
218.37130045890808,-0.67,-0.35,9.62,0.06,0.00,0.06,-19.56,19.25,-40.75,1.00,-0.03,0.03,0.06
218.69828295707703,-0.66,-0.36,9.54,0.06,-0.13,0.19,-19.25,19.56,-40.75,1.00,-0.03,0.03,0.06
219.02314281463623,-0.67,-0.36,9.58,0.00,0.00,0.06,-18.88,19.56,-41.50,1.00,-0.03,0.03,0.06
219.3497929573059,-0.67,-0.38,9.59,0.00,0.00,0.19,-18.50,18.50,-42.25,1.00,-0.03,0.03,0.06
219.6748559474945,-0.67,-0.38,9.56,0.06,0.06,-0.06,-19.25,18.88,-40.38,1.00,-0.03,0.03,0.06
220.00164031982422,-0.67,-0.37,9.60,0.00,-0.13,0.00,-18.88,18.88,-40.75,1.00,-0.03,0.03,0.06
220.3266749382019,-0.67,-0.37,9.57,0.00,-0.06,0.13,-19.56,18.88,-39.88,1.00,-0.03,0.03,0.06
220.65380311012268,-0.66,-0.36,9.57,0.00,-0.25,0.13,-19.56,18.88,-40.75,1.00,-0.03,0.03,0.06
220.97836756706238,-0.68,-0.36,9.57,-0.13,0.13,0.00,-18.88,17.75,-39.56,1.00,-0.03,0.03,0.06
221.30555772781372,-0.66,-0.36,9.58,0.00,-0.06,-0.06,-19.25,18.88,-40.75,1.00,-0.03,0.03,0.06
221.63031363487244,-0.67,-0.35,9.60,0.00,0.00,0.00,-19.25,17.75,-40.38,1.00,-0.03,0.03,0.06
221.95733880996704,-0.67,-0.36,9.61,0.00,-0.13,0.19,-19.25,18.88,-41.06,1.00,-0.03,0.03,0.06
222.28198337554932,-0.67,-0.38,9.60,0.00,-0.13,0.06,-19.56,19.25,-40.38,1.00,-0.03,0.03,0.06
222.60938930511475,-0.66,-0.35,9.59,0.06,-0.13,-0.13,-19.25,18.50,-41.06,1.00,-0.03,0.03,0.06
222.93473100662231,-0.65,-0.36,9.59,-0.06,-0.19,-0.13,-20.38,18.88,-40.38,1.00,-0.03,0.03,0.06
223.2606906890869,-0.67,-0.36,9.59,-0.06,0.00,0.00,-18.88,19.25,-40.38,1.00,-0.03,0.03,0.06
223.58601832389832,-0.63,-0.35,9.58,-0.13,-0.31,0.00,-18.88,19.56,-41.88,1.00,-0.03,0.03,0.06
223.9127688407898,-0.68,-0.36,9.59,0.06,0.19,0.19,-19.25,19.56,-41.50,1.00,-0.03,0.03,0.06
224.23739957809448,-0.65,-0.36,9.57,-0.13,-0.19,0.00,-19.25,19.25,-41.06,1.00,-0.03,0.03,0.06
224.56442523002625,-0.67,-0.38,9.57,0.00,-0.13,0.13,-19.56,18.88,-40.38,1.00,-0.03,0.03,0.06
224.88947296142578,-0.66,-0.37,9.58,-0.06,0.00,0.13,-19.56,18.50,-40.38,1.00,-0.03,0.03,0.06
225.21761775016785,-0.68,-0.35,9.57,0.06,0.00,0.06,-19.25,18.50,-42.25,1.00,-0.03,0.03,0.06
225.54352831840515,-0.65,-0.36,9.58,-0.06,0.06,-0.06,-19.56,19.25,-39.88,1.00,-0.03,0.03,0.06
225.86800622940063,-0.66,-0.37,9.59,0.06,0.13,0.06,-19.25,18.50,-39.56,1.00,-0.03,0.03,0.06
226.19312119483948,-0.67,-0.37,9.57,0.06,-0.13,0.06,-19.56,18.50,-41.50,1.00,-0.03,0.03,0.06
226.51987409591675,-0.68,-0.38,9.59,-0.06,0.13,-0.06,-19.56,18.50,-40.38,1.00,-0.03,0.03,0.06
226.84478044509888,-0.67,-0.35,9.58,0.06,-0.06,-0.06,-19.25,18.06,-40.75,1.00,-0.03,0.03,0.06
227.1713523864746,-0.65,-0.37,9.59,0.13,0.00,0.00,-19.25,18.88,-40.75,1.00,-0.03,0.03,0.06
227.4960868358612,-0.67,-0.35,9.57,0.00,-0.13,0.00,-19.25,19.25,-39.56,1.00,-0.03,0.03,0.06
227.82296419143677,-0.66,-0.37,9.60,0.06,0.00,0.13,-18.50,19.25,-41.06,1.00,-0.03,0.03,0.06
228.1476743221283,-0.67,-0.35,9.60,0.00,0.06,0.06,-19.25,18.88,-40.75,1.00,-0.03,0.03,0.06
228.47479963302612,-0.66,-0.36,9.57,-0.06,0.06,0.06,-18.50,18.06,-40.38,1.00,-0.03,0.03,0.06
228.79998111724854,-0.68,-0.35,9.58,-0.06,0.19,-0.06,-18.88,18.88,-40.38,1.00,-0.03,0.03,0.06
229.12747502326965,-0.67,-0.34,9.57,-0.06,-0.13,0.00,-19.56,18.50,-40.75,1.00,-0.03,0.03,0.06
229.45158338546753,-0.66,-0.34,9.61,0.06,0.06,0.13,-19.25,18.50,-40.38,1.00,-0.03,0.03,0.06
229.7780544757843,-0.68,-0.34,9.57,0.00,0.00,0.00,-18.88,18.88,-40.75,1.00,-0.03,0.03,0.06
230.10301852226257,-0.66,-0.36,9.58,-0.06,0.00,-0.06,-19.25,18.88,-40.75,1.00,-0.03,0.03,0.06
230.43171739578247,-0.67,-0.36,9.58,0.00,-0.19,0.00,-19.56,18.50,-40.75,1.00,-0.03,0.03,0.06
230.75477743148804,-0.67,-0.35,9.60,0.00,0.00,0.00,-19.56,18.88,-39.56,1.00,-0.03,0.03,0.06
231.08149790763855,-0.69,-0.36,9.56,0.06,-0.13,0.19,-18.88,18.50,-41.88,1.00,-0.03,0.03,0.06
231.4070291519165,-0.66,-0.38,9.56,-0.19,-0.13,-0.19,-18.50,19.25,-41.06,1.00,-0.03,0.03,0.06
231.7335386276245,-0.66,-0.37,9.58,0.00,0.00,0.00,-19.25,18.88,-40.38,1.00,-0.03,0.03,0.06
232.0586884021759,-0.65,-0.34,9.59,-0.13,-0.06,-0.13,-19.25,18.50,-40.00,1.00,-0.03,0.03,0.06
232.38527965545654,-0.66,-0.34,9.59,-0.06,-0.19,0.06,-19.25,18.88,-41.06,1.00,-0.03,0.03,0.06
232.70995116233826,-0.67,-0.35,9.56,0.00,-0.19,0.13,-19.25,18.88,-39.56,1.00,-0.03,0.03,0.06
233.03734922409058,-0.67,-0.37,9.57,-0.19,-0.06,0.00,-20.00,18.88,-40.38,1.00,-0.03,0.03,0.06
233.36211895942688,-0.66,-0.37,9.59,0.06,-0.06,0.00,-19.56,19.25,-41.06,1.00,-0.03,0.03,0.06
233.68875360488892,-0.67,-0.37,9.59,0.06,-0.06,0.06,-18.88,18.50,-41.06,1.00,-0.03,0.03,0.06
234.0138590335846,-0.67,-0.37,9.56,0.06,-0.06,-0.06,-18.88,18.50,-41.06,1.00,-0.03,0.03,0.06
234.340313911438,-0.66,-0.34,9.57,0.06,0.06,-0.13,-19.56,18.88,-40.38,1.00,-0.03,0.03,0.06
234.6652431488037,-0.68,-0.35,9.59,0.00,0.13,0.06,-19.56,18.06,-40.38,1.00,-0.03,0.03,0.06
234.9917232990265,-0.67,-0.35,9.58,0.13,0.00,-0.13,-19.25,18.50,-38.38,1.00,-0.03,0.03,0.06
235.31652998924255,-0.67,-0.34,9.57,0.00,0.13,0.06,-18.88,17.75,-40.38,1.00,-0.03,0.03,0.06
235.64303398132324,-0.70,-0.36,9.60,0.06,-0.19,0.00,-19.25,18.50,-40.75,1.00,-0.03,0.03,0.06
235.9681112766266,-0.68,-0.37,9.56,0.00,-0.06,0.00,-19.56,18.88,-41.06,1.00,-0.03,0.03,0.06
236.29434609413147,-0.68,-0.34,9.59,0.00,0.00,0.00,-19.56,18.50,-40.38,1.00,-0.03,0.03,0.06
236.61975741386414,-0.67,-0.36,9.59,0.06,-0.06,0.06,-18.88,18.88,-39.56,1.00,-0.03,0.03,0.06
236.94665813446045,-0.67,-0.36,9.58,-0.06,0.06,0.00,-19.25,18.88,-41.50,1.00,-0.03,0.03,0.06
237.2710280418396,-0.67,-0.36,9.59,0.00,-0.06,0.00,-19.25,18.88,-39.56,1.00,-0.03,0.03,0.06
237.59954524040222,-0.67,-0.35,9.57,-0.06,0.06,-0.13,-19.25,18.88,-40.00,1.00,-0.03,0.03,0.06
237.9237082004547,-0.66,-0.36,9.60,-0.06,-0.31,-0.06,-19.25,18.06,-40.75,1.00,-0.03,0.03,0.06
238.24969244003296,-0.67,-0.36,9.58,0.13,0.00,0.00,-19.56,18.88,-41.06,1.00,-0.03,0.03,0.06
238.57406401634216,-0.64,-0.37,9.60,0.13,0.00,0.06,-19.25,18.50,-40.75,1.00,-0.03,0.03,0.06
238.90108585357666,-0.67,-0.36,9.60,0.00,0.00,0.13,-19.56,18.50,-40.00,1.00,-0.03,0.03,0.06
239.22612929344177,-0.67,-0.36,9.54,-0.13,-0.06,-0.06,-19.56,18.88,-41.56,1.00,-0.03,0.03,0.06
239.55311799049377,-0.64,-0.37,9.56,-0.06,-0.06,0.06,-18.88,19.56,-41.06,1.00,-0.03,0.03,0.06
239.88068628311157,-0.64,-0.34,9.59,-0.06,-0.19,-0.06,-20.00,18.50,-40.38,1.00,-0.03,0.03,0.06
240.20482230186462,-0.66,-0.35,9.56,-0.06,-0.13,0.06,-18.88,18.88,-40.38,1.00,-0.03,0.03,0.06
240.52972650527954,-0.67,-0.36,9.60,0.00,0.19,-0.06,-19.25,18.50,-41.06,1.00,-0.03,0.03,0.06
240.8562273979187,-0.67,-0.37,9.57,-0.06,0.19,0.19,-19.56,18.50,-41.06,1.00,-0.03,0.03,0.06
241.18134355545044,-0.67,-0.36,9.57,-0.19,0.06,0.06,-20.75,18.06,-40.75,1.00,-0.03,0.03,0.06
241.50846886634827,-0.66,-0.35,9.56,-0.13,-0.06,0.06,-20.00,19.25,-40.00,1.00,-0.03,0.03,0.06
241.83295226097107,-0.64,-0.39,9.58,0.06,0.00,0.00,-19.25,18.88,-39.56,1.00,-0.03,0.03,0.06
242.16042566299438,-0.67,-0.36,9.59,-0.06,0.00,-0.19,-19.56,18.50,-41.06,1.00,-0.03,0.03,0.06
242.487366437912,-0.67,-0.36,9.59,0.00,-0.13,0.00,-19.25,18.88,-40.75,1.00,-0.03,0.03,0.06
242.81216168403625,-0.67,-0.35,9.59,0.00,0.13,0.00,-19.56,18.50,-40.75,1.00,-0.03,0.03,0.06
243.13620495796204,-0.67,-0.38,9.59,0.00,0.13,-0.13,-19.56,18.50,-40.00,1.00,-0.03,0.03,0.06
243.46633791923523,-0.68,-0.35,9.58,-0.06,0.06,0.06,-18.88,18.88,-40.38,1.00,-0.03,0.03,0.06
243.78821086883545,-0.67,-0.36,9.58,0.13,0.13,-0.13,-19.56,18.50,-41.88,1.00,-0.03,0.03,0.06
244.11621141433716,-0.68,-0.35,9.55,0.00,0.06,0.00,-18.50,18.50,-41.88,1.00,-0.03,0.03,0.06
244.4402551651001,-0.66,-0.36,9.60,0.00,0.13,0.06,-19.56,18.88,-40.38,1.00,-0.03,0.03,0.06
244.76659059524536,-0.66,-0.34,9.57,-0.06,0.00,0.19,-19.56,18.88,-41.06,1.00,-0.03,0.03,0.06
245.09393954277039,-0.65,-0.36,9.57,-0.13,0.00,-0.06,-19.25,19.25,-41.88,1.00,-0.03,0.03,0.06
245.41877627372742,-0.67,-0.37,9.56,0.00,-0.06,0.06,-19.25,18.06,-40.75,1.00,-0.03,0.03,0.06
245.74366235733032,-0.65,-0.37,9.58,0.00,0.13,0.06,-19.25,18.50,-40.38,1.00,-0.03,0.03,0.06
246.07030200958252,-0.66,-0.37,9.59,0.00,0.00,0.00,-18.88,18.50,-40.75,1.00,-0.03,0.03,0.06
246.39418363571167,-0.65,-0.39,9.54,-0.19,0.13,0.00,-19.25,18.50,-40.75,1.00,-0.03,0.03,0.06
246.72230339050293,-0.65,-0.34,9.59,0.06,0.13,0.00,-19.56,18.88,-40.38,1.00,-0.03,0.03,0.06
247.0470745563507,-0.66,-0.38,9.56,-0.06,-0.06,-0.06,-19.25,18.88,-40.00,1.00,-0.03,0.03,0.06
247.37650513648987,-0.65,-0.36,9.57,-0.06,-0.06,-0.06,-20.00,18.50,-40.38,1.00,-0.03,0.03,0.06
247.699147939682,-0.65,-0.38,9.57,0.00,-0.13,0.00,-20.00,17.75,-41.56,1.00,-0.03,0.03,0.06
248.0258047580719,-0.65,-0.35,9.57,0.06,0.06,0.19,-18.88,18.88,-40.38,1.00,-0.03,0.03,0.06
248.3508014678955,-0.67,-0.38,9.58,0.00,-0.13,0.00,-19.56,18.50,-40.38,1.00,-0.03,0.03,0.06
248.67743635177612,-0.66,-0.36,9.57,0.00,0.00,0.06,-18.88,18.06,-40.75,1.00,-0.03,0.03,0.06
249.00246381759644,-0.67,-0.37,9.57,0.06,0.00,-0.13,-20.00,18.50,-40.38,1.00,-0.03,0.03,0.06
249.32938051223755,-0.66,-0.37,9.56,0.00,-0.13,-0.06,-19.25,19.25,-40.38,1.00,-0.03,0.03,0.06
249.6537322998047,-0.66,-0.36,9.59,0.06,0.00,0.13,-18.88,18.88,-41.19,1.00,-0.03,0.03,0.06
249.9809329509735,-0.68,-0.35,9.60,0.06,-0.19,-0.13,-19.56,18.88,-40.75,1.00,-0.03,0.03,0.06
250.3062036037445,-0.67,-0.34,9.58,-0.13,0.06,0.06,-19.56,18.50,-40.75,1.00,-0.03,0.03,0.06
250.63333010673523,-0.67,-0.38,9.57,0.06,-0.13,0.00,-18.88,18.88,-40.38,1.00,-0.03,0.03,0.06
250.95841002464294,-0.66,-0.36,9.57,0.06,-0.06,-0.06,-19.56,18.88,-41.19,1.00,-0.03,0.03,0.06
251.2850842475891,-0.66,-0.33,9.61,-0.06,-0.06,0.06,-19.25,18.50,-41.06,1.00,-0.03,0.03,0.06
251.61049842834473,-0.65,-0.37,9.56,-0.13,0.06,0.13,-19.25,17.75,-40.75,1.00,-0.03,0.03,0.06
251.93740558624268,-0.68,-0.35,9.58,0.00,-0.06,-0.06,-19.25,18.50,-40.00,1.00,-0.03,0.03,0.06
252.26171588897705,-0.66,-0.36,9.57,0.00,0.19,0.06,-19.56,18.88,-40.38,1.00,-0.03,0.03,0.06
252.5885362625122,-0.67,-0.37,9.58,0.06,0.00,-0.06,-18.88,18.50,-41.19,1.00,-0.03,0.03,0.06
252.91365766525269,-0.65,-0.38,9.58,0.13,0.00,0.06,-19.56,18.50,-41.88,1.00,-0.03,0.03,0.06
253.24113202095032,-0.66,-0.35,9.57,0.00,-0.19,-0.13,-18.88,18.88,-41.56,1.00,-0.03,0.03,0.06
253.56468224525452,-0.67,-0.38,9.60,0.00,-0.13,-0.06,-19.25,18.50,-41.56,1.00,-0.03,0.03,0.06
253.8914794921875,-0.66,-0.35,9.56,0.00,0.00,0.00,-19.25,18.88,-41.06,1.00,-0.03,0.03,0.06
254.21657156944275,-0.65,-0.37,9.57,-0.06,-0.13,0.00,-18.88,18.88,-41.56,1.00,-0.03,0.03,0.06
254.54354643821716,-0.67,-0.34,9.59,0.06,-0.13,0.00,-19.56,18.50,-41.06,1.00,-0.03,0.03,0.06
254.8686821460724,-0.67,-0.38,9.57,-0.13,-0.06,-0.06,-20.00,18.50,-40.75,1.00,-0.03,0.03,0.06
255.195641040802,-0.67,-0.35,9.56,-0.06,0.06,0.00,-19.25,19.25,-40.38,1.00,-0.03,0.03,0.06
255.51960158348083,-0.65,-0.35,9.57,-0.06,0.00,0.00,-18.50,18.50,-40.75,1.00,-0.03,0.03,0.06
255.84735488891602,-0.67,-0.36,9.57,0.00,0.06,-0.06,-19.25,18.50,-42.25,1.00,-0.03,0.03,0.06
256.17159605026245,-0.65,-0.37,9.58,0.06,0.19,0.06,-20.00,18.06,-40.38,1.00,-0.03,0.03,0.06
256.4985876083374,-0.68,-0.36,9.59,0.19,0.06,0.00,-19.25,18.88,-39.56,1.00,-0.03,0.03,0.06
256.8238184452057,-0.67,-0.36,9.58,0.06,-0.06,0.13,-19.56,19.25,-41.56,1.00,-0.03,0.03,0.06
257.15154695510864,-0.67,-0.35,9.57,-0.13,-0.13,0.06,-19.56,18.50,-40.75,1.00,-0.03,0.03,0.06
257.4752974510193,-0.68,-0.36,9.58,0.06,-0.19,0.00,-19.25,19.25,-40.38,1.00,-0.03,0.03,0.06
257.80224990844727,-0.67,-0.37,9.56,0.06,0.06,0.13,-19.25,19.56,-41.06,1.00,-0.03,0.03,0.06
258.1275591850281,-0.66,-0.36,9.59,-0.06,-0.13,-0.13,-18.50,18.88,-40.38,1.00,-0.03,0.03,0.06
258.45347142219543,-0.66,-0.35,9.60,0.00,0.00,0.00,-19.56,18.88,-41.56,1.00,-0.03,0.03,0.06
258.7790458202362,-0.66,-0.34,9.59,-0.06,0.06,-0.06,-19.25,18.88,-41.19,1.00,-0.03,0.03,0.06
259.1059811115265,-0.65,-0.35,9.58,0.06,0.13,0.00,-19.25,19.25,-40.75,1.00,-0.03,0.03,0.06
259.4306449890137,-0.67,-0.37,9.56,0.00,0.13,-0.06,-18.88,18.88,-41.19,1.00,-0.03,0.03,0.06
259.7579040527344,-0.69,-0.37,9.57,0.00,-0.25,-0.06,-18.88,18.50,-41.19,1.00,-0.03,0.03,0.06
260.0835497379303,-0.68,-0.37,9.58,-0.06,-0.13,-0.25,-18.88,18.50,-40.00,1.00,-0.03,0.03,0.06
260.4101531505585,-0.66,-0.38,9.57,0.00,0.06,-0.13,-20.00,18.06,-40.75,1.00,-0.03,0.03,0.06
260.7346649169922,-0.67,-0.35,9.57,-0.06,0.06,0.06,-19.56,18.88,-41.56,1.00,-0.03,0.03,0.06
261.0612704753876,-0.67,-0.36,9.55,-0.06,0.13,-0.06,-18.88,18.88,-40.75,1.00,-0.03,0.03,0.06
261.3865818977356,-0.67,-0.35,9.58,0.13,0.19,0.00,-19.25,18.06,-40.75,1.00,-0.03,0.03,0.06
261.7126250267029,-0.67,-0.36,9.58,-0.06,0.00,0.00,-20.00,18.88,-40.75,1.00,-0.03,0.03,0.06
262.0378818511963,-0.66,-0.37,9.61,0.13,-0.06,0.00,-19.56,17.75,-39.25,1.00,-0.03,0.03,0.06
262.36426520347595,-0.67,-0.36,9.59,0.06,-0.06,-0.06,-19.25,18.88,-39.25,1.00,-0.03,0.03,0.06
262.68955516815186,-0.67,-0.37,9.57,-0.06,0.00,0.00,-19.25,18.88,-40.38,1.00,-0.03,0.03,0.06
263.0167815685272,-0.64,-0.38,9.56,0.00,-0.19,-0.06,-19.25,18.88,-40.00,1.00,-0.03,0.03,0.06
263.34159207344055,-0.68,-0.36,9.60,0.00,-0.06,0.06,-19.56,18.06,-41.06,1.00,-0.03,0.03,0.06
263.6697368621826,-0.66,-0.36,9.58,0.06,-0.19,0.13,-19.56,18.06,-40.00,1.00,-0.03,0.03,0.06
263.9935700893402,-0.65,-0.36,9.59,-0.06,0.13,0.13,-19.56,19.25,-41.19,1.00,-0.03,0.03,0.06
264.3218243122101,-0.67,-0.39,9.61,0.06,-0.13,-0.13,-20.75,17.75,-40.38,1.00,-0.03,0.03,0.06
264.6447699069977,-0.67,-0.36,9.57,0.00,0.06,0.00,-19.25,19.25,-39.56,1.00,-0.03,0.03,0.06
264.97194480895996,-0.67,-0.36,9.60,0.00,0.13,0.00,-19.25,19.25,-41.19,1.00,-0.03,0.03,0.06
265.2958474159241,-0.67,-0.36,9.59,0.00,-0.19,0.13,-19.56,18.88,-39.56,1.00,-0.03,0.03,0.06
265.62462735176086,-0.66,-0.35,9.61,0.00,0.06,0.00,-19.25,18.06,-40.38,1.00,-0.03,0.03,0.06
265.94849014282227,-0.65,-0.35,9.57,-0.06,0.06,-0.06,-18.88,18.88,-40.38,1.00,-0.03,0.03,0.06
266.2748987674713,-0.69,-0.36,9.57,0.06,0.00,0.13,-18.50,18.50,-40.75,1.00,-0.03,0.03,0.06
266.5993688106537,-0.66,-0.36,9.58,0.00,-0.25,0.06,-20.00,18.88,-40.75,1.00,-0.03,0.03,0.06
266.92759895324707,-0.67,-0.36,9.57,0.06,0.00,-0.06,-19.56,18.06,-41.19,1.00,-0.03,0.03,0.06
267.25251054763794,-0.67,-0.37,9.58,0.00,-0.06,-0.06,-19.56,18.88,-41.19,1.00,-0.03,0.03,0.06
267.5786380767822,-0.66,-0.38,9.59,0.00,-0.25,-0.06,-20.00,18.06,-41.19,1.00,-0.03,0.03,0.06
267.9037675857544,-0.66,-0.37,9.57,0.06,-0.50,0.00,-19.56,18.88,-39.56,1.00,-0.03,0.03,0.06
268.2298948764801,-0.67,-0.35,9.57,-0.06,0.06,0.00,-20.00,19.25,-41.19,1.00,-0.03,0.03,0.06
268.55502581596375,-0.65,-0.36,9.59,-0.06,0.00,0.00,-19.25,18.06,-40.75,1.00,-0.03,0.03,0.06
268.8821506500244,-0.67,-0.36,9.57,-0.06,0.06,0.00,-19.25,17.38,-40.00,1.00,-0.03,0.03,0.06
269.20733428001404,-0.67,-0.34,9.56,-0.06,-0.13,-0.19,-19.56,18.50,-40.00,1.00,-0.03,0.03,0.06
269.5334458351135,-0.66,-0.37,9.60,0.00,0.00,-0.06,-18.88,19.56,-39.56,1.00,-0.03,0.03,0.06
269.85826110839844,-0.64,-0.37,9.57,-0.06,-0.06,-0.06,-20.00,18.88,-40.00,1.00,-0.03,0.03,0.06
270.1862528324127,-0.67,-0.36,9.60,-0.06,0.13,-0.06,-20.00,18.88,-40.75,1.00,-0.03,0.03,0.06
270.51075625419617,-0.68,-0.36,9.57,-0.06,0.06,0.00,-18.88,18.06,-40.75,1.00,-0.03,0.03,0.06
270.837769985199,-0.67,-0.35,9.57,-0.06,-0.06,0.00,-19.56,19.25,-42.69,1.00,-0.03,0.03,0.06
271.162561416626,-0.67,-0.37,9.57,0.00,-0.13,0.00,-18.88,17.75,-40.00,1.00,-0.03,0.03,0.06
271.48917293548584,-0.67,-0.35,9.59,0.13,0.19,0.13,-19.56,18.88,-40.38,1.00,-0.03,0.03,0.06
271.81397795677185,-0.67,-0.34,9.58,0.00,-0.19,0.00,-19.25,19.25,-41.56,1.00,-0.03,0.03,0.06
272.1404650211334,-0.67,-0.37,9.56,0.19,0.00,0.00,-20.75,17.75,-39.56,1.00,-0.03,0.03,0.06
272.4672610759735,-0.67,-0.37,9.59,0.00,0.13,-0.06,-19.25,18.50,-41.19,1.00,-0.03,0.03,0.06
272.793169260025,-0.67,-0.36,9.58,0.00,0.00,0.06,-18.88,18.88,-40.75,1.00,-0.03,0.03,0.06
273.11686849594116,-0.65,-0.37,9.58,-0.13,0.00,0.06,-20.00,18.88,-41.88,1.00,-0.03,0.03,0.06
273.44425415992737,-0.66,-0.38,9.58,0.00,-0.06,0.00,-19.56,18.50,-40.75,1.00,-0.03,0.03,0.06
273.7685775756836,-0.65,-0.37,9.59,0.00,0.06,-0.06,-20.38,18.50,-40.75,1.00,-0.03,0.03,0.06
274.09568667411804,-0.68,-0.36,9.57,0.06,-0.19,0.06,-19.25,18.50,-40.00,1.00,-0.03,0.03,0.06
274.4205310344696,-0.65,-0.36,9.60,-0.13,0.25,0.06,-19.25,18.88,-40.00,1.00,-0.03,0.03,0.06
274.7474184036255,-0.66,-0.35,9.55,0.00,-0.13,0.06,-19.56,18.50,-41.56,1.00,-0.03,0.03,0.06
275.07231092453003,-0.67,-0.37,9.59,0.00,-0.06,0.13,-20.38,18.50,-41.19,1.00,-0.03,0.03,0.06
275.39847683906555,-0.67,-0.36,9.59,-0.13,0.00,-0.06,-18.88,18.88,-40.00,1.00,-0.03,0.03,0.06
275.7235713005066,-0.64,-0.36,9.59,0.00,-0.13,0.06,-19.56,18.50,-40.38,1.00,-0.03,0.03,0.06
276.0507414340973,-0.66,-0.36,9.58,-0.06,-0.13,-0.13,-19.56,18.88,-40.00,1.00,-0.03,0.03,0.06
276.37587571144104,-0.67,-0.37,9.59,-0.06,-0.13,-0.06,-19.56,18.50,-41.88,1.00,-0.03,0.03,0.06
276.70266246795654,-0.67,-0.37,9.61,0.00,0.00,-0.06,-20.00,19.25,-40.75,1.00,-0.03,0.03,0.06
277.02754855155945,-0.66,-0.37,9.57,-0.06,-0.13,-0.06,-18.88,18.06,-41.56,1.00,-0.03,0.03,0.06
277.3544239997864,-0.67,-0.36,9.61,0.06,0.13,-0.25,-18.88,18.50,-40.75,1.00,-0.03,0.03,0.06
277.6794216632843,-0.66,-0.35,9.55,-0.06,-0.06,0.00,-18.88,18.88,-40.38,1.00,-0.03,0.03,0.06
278.0061228275299,-0.66,-0.37,9.56,-0.06,-0.06,0.00,-18.50,19.25,-40.75,1.00,-0.03,0.03,0.06
278.3317165374756,-0.68,-0.37,9.58,-0.06,-0.25,-0.06,-19.56,18.88,-40.38,1.00,-0.03,0.03,0.06
278.6578459739685,-0.67,-0.36,9.57,-0.06,0.13,-0.06,-19.56,18.88,-40.75,1.00,-0.03,0.03,0.06
278.9829740524292,-0.66,-0.36,9.57,-0.13,0.19,-0.06,-19.25,18.50,-40.75,1.00,-0.03,0.03,0.06
279.3091037273407,-0.67,-0.36,9.57,0.00,0.00,0.06,-18.88,19.25,-41.56,1.00,-0.03,0.03,0.06
279.6340036392212,-0.67,-0.35,9.60,-0.06,0.13,0.00,-18.88,18.88,-40.75,1.00,-0.03,0.03,0.06
279.96135997772217,-0.66,-0.36,9.57,0.00,-0.25,-0.06,-19.56,18.50,-40.38,1.00,-0.03,0.03,0.06
280.28564167022705,-0.67,-0.36,9.57,0.00,0.25,0.13,-19.25,18.88,-40.75,1.00,-0.03,0.03,0.06
280.61262130737305,-0.67,-0.36,9.57,-0.13,0.13,-0.13,-18.88,19.25,-40.75,1.00,-0.03,0.03,0.06
280.93778562545776,-0.68,-0.33,9.57,0.00,-0.06,0.00,-18.88,18.50,-40.00,1.00,-0.03,0.03,0.06
281.2649128437042,-0.65,-0.37,9.58,-0.06,-0.06,-0.13,-18.88,18.06,-40.00,1.00,-0.03,0.03,0.06
281.58861017227173,-0.68,-0.38,9.59,0.06,0.00,0.00,-19.25,18.06,-40.38,1.00,-0.03,0.03,0.06
281.91609740257263,-0.67,-0.34,9.58,0.00,0.19,0.00,-18.88,19.25,-40.38,1.00,-0.03,0.03,0.06
282.2405548095703,-0.68,-0.39,9.62,0.00,0.00,0.00,-19.25,18.50,-40.75,1.00,-0.03,0.03,0.06
282.56768012046814,-0.67,-0.37,9.59,-0.06,0.00,0.00,-19.25,18.88,-41.19,1.00,-0.03,0.03,0.06
282.8918466567993,-0.67,-0.37,9.61,-0.06,-0.13,0.06,-19.56,18.50,-39.25,1.00,-0.03,0.03,0.06
283.21883630752563,-0.67,-0.36,9.55,-0.06,0.06,0.00,-19.25,18.88,-41.88,1.00,-0.03,0.03,0.06
283.54462242126465,-0.67,-0.36,9.57,-0.06,-0.25,-0.13,-20.00,18.06,-40.38,1.00,-0.03,0.03,0.06
283.8710901737213,-0.67,-0.37,9.57,-0.06,0.00,0.06,-20.00,18.06,-40.75,1.00,-0.03,0.03,0.06
284.19630765914917,-0.62,-0.36,9.59,-0.06,0.00,0.00,-19.25,18.06,-41.19,1.00,-0.03,0.03,0.06
284.52304124832153,-0.67,-0.36,9.56,0.00,-0.06,0.00,-19.56,17.75,-39.25,1.00,-0.03,0.03,0.06
284.84786796569824,-0.65,-0.35,9.60,0.00,0.06,-0.06,-19.25,18.50,-39.56,1.00,-0.03,0.03,0.06
285.17462491989136,-0.67,-0.37,9.56,0.00,-0.06,0.06,-20.00,18.50,-40.38,1.00,-0.03,0.03,0.06
285.4997515678406,-0.68,-0.37,9.58,0.13,0.19,-0.06,-19.25,18.50,-40.00,1.00,-0.03,0.03,0.06
285.8265914916992,-0.67,-0.36,9.59,-0.06,0.06,-0.06,-20.00,18.50,-40.75,1.00,-0.03,0.03,0.06
286.1510429382324,-0.67,-0.36,9.55,0.00,-0.06,0.00,-18.88,18.50,-41.19,1.00,-0.03,0.03,0.06
286.47818183898926,-0.65,-0.37,9.61,-0.06,0.06,0.00,-18.88,18.50,-40.75,1.00,-0.03,0.03,0.06
286.8027937412262,-0.67,-0.34,9.57,0.06,-0.06,-0.06,-19.56,18.88,-41.88,1.00,-0.03,0.03,0.06
287.12987995147705,-0.67,-0.35,9.57,0.00,0.00,0.00,-18.50,18.88,-40.38,1.00,-0.03,0.03,0.06
287.45474338531494,-0.69,-0.37,9.59,-0.06,0.00,-0.06,-19.25,18.06,-40.38,1.00,-0.03,0.03,0.06
287.7817225456238,-0.65,-0.34,9.56,-0.19,-0.19,0.00,-19.25,18.06,-41.19,1.00,-0.03,0.03,0.06
288.10629439353943,-0.66,-0.36,9.57,0.06,-0.19,-0.06,-19.25,18.06,-40.00,1.00,-0.03,0.03,0.06
288.43350648880005,-0.66,-0.33,9.57,-0.06,0.00,-0.13,-18.88,18.06,-40.00,1.00,-0.03,0.03,0.06
288.7585415840149,-0.65,-0.36,9.54,-0.13,-0.06,0.00,-19.56,18.50,-41.19,1.00,-0.03,0.03,0.06
289.08527398109436,-0.69,-0.36,9.57,-0.13,0.06,0.06,-19.56,18.06,-40.00,1.00,-0.03,0.03,0.06
289.4102442264557,-0.67,-0.35,9.58,-0.06,0.00,-0.06,-20.38,18.50,-40.75,1.00,-0.03,0.03,0.06
289.7370500564575,-0.67,-0.38,9.59,0.06,-0.06,0.06,-19.25,18.50,-39.56,1.00,-0.03,0.03,0.06
290.0620813369751,-0.68,-0.36,9.58,-0.06,-0.06,0.19,-18.88,17.75,-41.19,1.00,-0.03,0.03,0.06
290.3885862827301,-0.68,-0.37,9.61,0.13,0.00,-0.06,-19.25,18.06,-41.19,1.00,-0.03,0.03,0.06
290.7133376598358,-0.67,-0.36,9.60,0.00,0.00,0.00,-18.50,18.88,-40.38,1.00,-0.03,0.03,0.06
291.0394949913025,-0.67,-0.36,9.56,-0.06,0.00,0.00,-19.25,18.50,-40.00,1.00,-0.03,0.03,0.06
291.36459612846375,-0.66,-0.36,9.59,-0.06,0.00,-0.06,-19.56,19.56,-40.75,1.00,-0.03,0.03,0.06
291.6917231082916,-0.67,-0.35,9.57,0.06,0.00,0.00,-18.88,18.88,-40.75,1.00,-0.03,0.03,0.06
292.0161302089691,-0.68,-0.35,9.58,0.00,0.00,0.00,-18.88,18.50,-40.38,1.00,-0.03,0.03,0.06
292.3430826663971,-0.68,-0.34,9.62,0.06,0.19,0.13,-20.00,18.50,-40.00,1.00,-0.03,0.03,0.06
292.66811060905457,-0.68,-0.35,9.57,-0.13,0.06,0.06,-19.56,18.50,-40.75,1.00,-0.03,0.03,0.06
292.99520802497864,-0.66,-0.37,9.61,-0.06,0.00,-0.06,-20.38,18.88,-40.75,1.00,-0.03,0.03,0.06
293.3199939727783,-0.66,-0.38,9.57,-0.13,0.06,0.06,-18.88,18.06,-40.38,1.00,-0.03,0.03,0.06
293.64821338653564,-0.65,-0.38,9.58,0.00,0.13,0.06,-19.25,18.88,-40.75,1.00,-0.03,0.03,0.06
293.9714472293854,-0.69,-0.37,9.59,0.00,-0.13,0.06,-20.00,18.06,-40.75,1.00,-0.03,0.03,0.06
294.2982294559479,-0.65,-0.36,9.56,0.06,-0.31,0.06,-19.25,18.88,-41.56,1.00,-0.03,0.03,0.06
294.6232635974884,-0.67,-0.36,9.57,0.00,0.19,0.06,-19.25,18.88,-40.75,1.00,-0.03,0.03,0.06
294.9499728679657,-0.65,-0.37,9.56,0.00,-0.25,0.06,-19.25,18.88,-40.75,1.00,-0.03,0.03,0.06
295.2745475769043,-0.69,-0.36,9.59,0.06,0.19,0.13,-19.56,18.88,-40.75,1.00,-0.03,0.03,0.06
295.6018035411835,-0.65,-0.36,9.56,-0.13,-0.06,0.00,-18.50,18.50,-41.19,1.00,-0.03,0.03,0.06
295.92670035362244,-0.65,-0.35,9.59,0.13,0.13,0.06,-18.88,18.06,-41.19,1.00,-0.03,0.03,0.06
296.2533402442932,-0.65,-0.34,9.59,0.06,-0.25,0.06,-18.88,18.50,-40.75,1.00,-0.03,0.03,0.06
296.5786097049713,-0.65,-0.36,9.61,0.00,-0.06,-0.13,-19.25,17.75,-41.88,1.00,-0.03,0.03,0.06
296.9053199291229,-0.66,-0.38,9.55,0.06,-0.19,0.13,-19.56,18.50,-40.75,1.00,-0.03,0.03,0.06
297.2299699783325,-0.67,-0.36,9.59,0.13,0.00,-0.25,-18.88,18.88,-41.19,1.00,-0.03,0.03,0.06
297.5567307472229,-0.65,-0.37,9.57,0.00,0.13,0.00,-19.25,18.88,-41.19,1.00,-0.03,0.03,0.06
297.88151121139526,-0.67,-0.35,9.60,0.00,0.06,-0.13,-20.38,18.88,-40.75,1.00,-0.03,0.03,0.06
298.2080638408661,-0.68,-0.37,9.59,-0.13,0.06,0.06,-19.25,18.88,-40.00,1.00,-0.03,0.03,0.06
298.53297996520996,-0.66,-0.37,9.57,-0.06,0.00,0.13,-19.25,18.50,-41.56,1.00,-0.03,0.03,0.06
298.86022877693176,-0.68,-0.37,9.59,0.13,-0.19,0.13,-18.88,19.25,-41.88,1.00,-0.03,0.03,0.06
299.1848978996277,-0.68,-0.35,9.57,-0.13,0.06,0.00,-19.25,18.88,-40.75,1.00,-0.03,0.03,0.06
299.5114858150482,-0.68,-0.36,9.59,0.06,0.06,0.00,-19.56,18.88,-40.75,1.00,-0.03,0.03,0.06
299.83662509918213,-0.65,-0.37,9.59,0.00,-0.13,0.13,-18.88,17.38,-40.38,1.00,-0.03,0.03,0.06
300.1632661819458,-0.67,-0.36,9.59,0.19,0.00,-0.06,-18.88,18.88,-40.75,1.00,-0.03,0.03,0.06
300.487731218338,-0.67,-0.36,9.60,0.13,0.06,0.06,-19.56,18.06,-40.75,1.00,-0.03,0.03,0.06
300.81472301483154,-0.67,-0.37,9.57,0.00,0.06,0.00,-19.25,18.50,-40.00,1.00,-0.03,0.03,0.06
301.14044404029846,-0.67,-0.35,9.57,0.06,-0.06,0.00,-19.56,19.25,-40.38,1.00,-0.03,0.03,0.06
301.46686935424805,-0.67,-0.37,9.59,0.13,0.06,-0.06,-19.25,19.25,-40.75,1.00,-0.03,0.03,0.06
301.7918689250946,-0.67,-0.36,9.55,-0.06,0.00,-0.06,-18.88,18.88,-40.38,1.00,-0.03,0.03,0.06
302.1183977127075,-0.65,-0.37,9.57,0.00,-0.06,0.06,-18.88,18.50,-40.75,1.00,-0.03,0.03,0.06
302.4427387714386,-0.67,-0.38,9.60,0.00,0.25,0.06,-19.25,18.50,-40.00,1.00,-0.03,0.03,0.06
302.7699553966522,-0.67,-0.36,9.58,0.00,-0.13,0.06,-19.56,18.50,-40.38,1.00,-0.03,0.03,0.06
303.0946259498596,-0.66,-0.37,9.59,0.06,0.19,0.13,-19.25,17.75,-41.56,1.00,-0.03,0.03,0.06
303.42129158973694,-0.67,-0.37,9.57,0.00,-0.13,0.06,-19.25,17.75,-41.56,1.00,-0.03,0.03,0.06
303.7490246295929,-0.67,-0.36,9.59,0.06,0.13,0.06,-18.88,18.88,-40.38,1.00,-0.03,0.03,0.06
304.0735213756561,-0.66,-0.39,9.58,-0.13,0.00,0.00,-19.25,18.06,-40.75,1.00,-0.03,0.03,0.06
304.3974928855896,-0.64,-0.36,9.59,-0.06,-0.06,0.00,-19.25,19.25,-40.00,1.00,-0.03,0.03,0.06
304.7279999256134,-0.66,-0.35,9.57,-0.06,0.13,-0.06,-19.25,18.88,-40.75,1.00,-0.03,0.03,0.06
305.0505704879761,-0.66,-0.36,9.61,-0.13,0.06,-0.13,-18.88,18.50,-40.75,1.00,-0.03,0.03,0.06
305.37653851509094,-0.66,-0.36,9.60,0.00,-0.13,-0.06,-19.25,18.88,-40.75,1.00,-0.03,0.03,0.06
305.7018232345581,-0.67,-0.35,9.58,-0.06,0.00,0.00,-18.88,17.75,-40.38,1.00,-0.03,0.03,0.06
306.0286910533905,-0.67,-0.37,9.56,0.00,0.06,-0.13,-18.88,18.50,-40.38,1.00,-0.03,0.03,0.06
306.353143453598,-0.65,-0.39,9.59,-0.06,0.00,0.00,-19.25,18.50,-41.56,1.00,-0.03,0.03,0.06
306.6798141002655,-0.66,-0.37,9.57,0.00,0.13,-0.13,-20.38,18.50,-40.00,1.00,-0.03,0.03,0.06
307.00498485565186,-0.66,-0.36,9.58,-0.06,0.13,-0.06,-18.88,18.88,-40.75,1.00,-0.03,0.03,0.06
307.33271503448486,-0.67,-0.37,9.61,0.06,-0.13,0.19,-18.50,18.50,-42.00,1.00,-0.03,0.03,0.06
307.6562967300415,-0.68,-0.36,9.58,0.00,0.13,0.00,-18.50,18.50,-41.19,1.00,-0.03,0.03,0.06
307.98347520828247,-0.67,-0.37,9.59,0.00,0.06,0.06,-18.50,17.75,-39.56,1.00,-0.03,0.03,0.06
308.3078603744507,-0.67,-0.36,9.61,-0.06,0.00,0.00,-18.88,19.56,-40.38,1.00,-0.03,0.03,0.06
308.63498425483704,-0.66,-0.37,9.58,0.00,-0.06,-0.06,-19.25,18.06,-40.38,1.00,-0.03,0.03,0.06
308.95977234840393,-0.68,-0.35,9.57,0.06,0.06,0.00,-19.25,18.06,-41.19,1.00,-0.03,0.03,0.06
309.28652691841125,-0.64,-0.37,9.56,0.00,-0.25,0.00,-19.25,18.50,-40.38,1.00,-0.03,0.03,0.06
309.61129117012024,-0.67,-0.36,9.57,0.06,0.00,0.00,-19.25,18.06,-40.75,1.00,-0.03,0.03,0.06
309.93847918510437,-0.67,-0.35,9.59,0.00,-0.19,-0.13,-18.88,18.06,-40.38,1.00,-0.03,0.03,0.06
310.2630224227905,-0.67,-0.34,9.57,0.06,-0.06,0.00,-18.50,18.88,-40.00,1.00,-0.03,0.03,0.06
310.5901699066162,-0.67,-0.36,9.60,-0.06,0.13,-0.06,-19.25,18.50,-40.75,1.00,-0.03,0.03,0.06
310.91502499580383,-0.66,-0.37,9.60,0.00,0.13,0.13,-19.25,19.25,-42.38,1.00,-0.03,0.03,0.06
311.2418546676636,-0.65,-0.34,9.55,0.06,-0.19,0.06,-18.88,18.50,-41.56,1.00,-0.03,0.03,0.06
311.5675172805786,-0.67,-0.36,9.58,0.00,0.06,-0.06,-18.50,18.88,-40.38,1.00,-0.03,0.03,0.06
311.89300084114075,-0.68,-0.37,9.56,0.00,0.00,0.13,-19.25,18.50,-41.19,1.00,-0.03,0.03,0.06
312.2179353237152,-0.65,-0.38,9.61,-0.06,0.06,0.00,-19.56,18.50,-42.00,1.00,-0.03,0.03,0.06
312.544579744339,-0.67,-0.37,9.57,0.00,0.06,0.06,-19.56,18.06,-40.00,1.00,-0.03,0.03,0.06
312.86963987350464,-0.68,-0.36,9.56,-0.06,0.00,-0.13,-18.88,19.25,-40.75,1.00,-0.03,0.03,0.06
313.19624948501587,-0.69,-0.37,9.58,0.00,0.06,0.06,-19.56,18.06,-40.38,1.00,-0.03,0.03,0.06
313.5209376811981,-0.66,-0.37,9.59,0.06,0.00,0.00,-19.25,18.50,-40.75,1.00,-0.03,0.03,0.06
313.8472421169281,-0.65,-0.37,9.58,0.13,0.00,0.00,-19.56,18.88,-40.38,1.00,-0.03,0.03,0.06
314.1725540161133,-0.67,-0.36,9.59,-0.06,0.00,-0.06,-18.06,18.06,-41.56,1.00,-0.03,0.03,0.06
314.49964666366577,-0.67,-0.37,9.59,0.06,0.06,0.00,-18.88,18.06,-41.19,1.00,-0.03,0.03,0.06
314.8242812156677,-0.67,-0.37,9.58,-0.06,0.06,0.00,-18.88,18.88,-40.38,1.00,-0.03,0.03,0.06
315.1511318683624,-0.64,-0.37,9.60,0.00,0.00,0.00,-19.25,18.88,-40.38,1.00,-0.03,0.03,0.06
315.47531151771545,-0.67,-0.38,9.57,0.13,0.13,0.00,-19.25,18.06,-40.38,1.00,-0.03,0.03,0.06
315.8032157421112,-0.65,-0.36,9.58,-0.13,0.13,-0.13,-19.56,18.50,-40.75,1.00,-0.03,0.03,0.06
316.127849817276,-0.69,-0.37,9.58,0.00,-0.06,0.06,-18.88,18.06,-40.38,1.00,-0.03,0.03,0.06
316.4547061920166,-0.66,-0.36,9.57,-0.06,0.06,0.00,-19.25,18.50,-40.00,1.00,-0.03,0.03,0.06
316.7801446914673,-0.67,-0.37,9.59,0.06,-0.06,-0.06,-20.00,18.50,-39.56,1.00,-0.03,0.03,0.06
317.1065788269043,-0.66,-0.36,9.59,-0.19,0.00,0.06,-18.06,17.75,-39.56,1.00,-0.03,0.03,0.06
317.4318253993988,-0.65,-0.35,9.59,-0.06,-0.13,0.06,-19.25,19.25,-40.75,1.00,-0.03,0.03,0.06
317.758314371109,-0.67,-0.37,9.59,-0.06,0.31,0.00,-19.25,18.88,-41.19,1.00,-0.03,0.03,0.06
318.0832393169403,-0.68,-0.36,9.58,0.00,0.19,0.00,-18.88,18.88,-40.00,1.00,-0.03,0.03,0.06
318.40997433662415,-0.67,-0.35,9.59,0.00,0.13,-0.06,-19.25,18.50,-41.19,1.00,-0.03,0.03,0.06
318.7343842983246,-0.66,-0.38,9.58,0.00,0.13,0.00,-18.88,18.50,-40.00,1.00,-0.03,0.03,0.06
319.06110644340515,-0.70,-0.37,9.56,-0.13,0.06,0.00,-18.88,18.50,-41.19,1.00,-0.03,0.03,0.06
319.38643741607666,-0.66,-0.37,9.61,-0.06,0.00,0.13,-19.56,18.50,-40.75,1.00,-0.03,0.03,0.06
319.71362805366516,-0.67,-0.39,9.58,0.06,-0.06,0.06,-19.56,18.88,-40.75,1.00,-0.03,0.03,0.06
320.0381727218628,-0.67,-0.37,9.60,-0.06,0.06,0.00,-20.00,18.88,-40.38,1.00,-0.03,0.03,0.06
320.36500358581543,-0.68,-0.37,9.62,0.06,-0.06,0.13,-18.88,18.50,-42.00,1.00,-0.03,0.03,0.06
320.6894233226776,-0.64,-0.37,9.58,0.00,0.06,0.06,-19.56,18.88,-41.19,1.00,-0.03,0.03,0.06
321.01632046699524,-0.67,-0.37,9.60,0.06,0.06,0.00,-19.56,18.06,-41.56,1.00,-0.03,0.03,0.06
321.3409900665283,-0.65,-0.37,9.56,-0.06,-0.13,0.00,-19.25,18.06,-39.56,1.00,-0.03,0.03,0.06
321.66800260543823,-0.65,-0.36,9.55,0.06,0.19,0.06,-20.00,18.06,-40.00,1.00,-0.03,0.03,0.06
321.9923770427704,-0.67,-0.36,9.59,0.06,0.19,0.00,-19.56,19.25,-40.75,1.00,-0.03,0.03,0.06
322.3192467689514,-0.67,-0.39,9.58,0.13,0.06,0.06,-19.25,18.50,-39.56,1.00,-0.03,0.03,0.06
322.64366579055786,-0.69,-0.38,9.58,0.13,0.00,0.00,-18.88,18.88,-41.19,1.00,-0.03,0.03,0.06
322.97226214408875,-0.66,-0.37,9.61,0.06,-0.19,0.19,-20.75,18.88,-39.25,1.00,-0.03,0.03,0.06
323.29566383361816,-0.67,-0.35,9.56,0.00,0.00,-0.13,-19.56,19.56,-41.19,1.00,-0.03,0.03,0.06
323.6231005191803,-0.67,-0.37,9.57,0.06,-0.13,0.06,-19.25,18.88,-41.19,1.00,-0.03,0.03,0.06
323.9478340148926,-0.66,-0.36,9.59,0.00,0.00,0.06,-20.38,19.25,-40.38,1.00,-0.03,0.03,0.06
324.27561497688293,-0.66,-0.38,9.61,-0.13,-0.19,-0.06,-20.00,18.88,-41.19,1.00,-0.03,0.03,0.06
324.6003165245056,-0.68,-0.36,9.57,0.00,-0.13,-0.06,-19.56,19.25,-39.69,1.00,-0.03,0.03,0.06
324.9271125793457,-0.67,-0.37,9.60,-0.06,-0.13,0.00,-20.00,18.06,-41.56,1.00,-0.03,0.03,0.06
325.2516713142395,-0.67,-0.35,9.57,-0.06,0.31,0.00,-19.25,18.88,-41.19,1.00,-0.03,0.03,0.06
325.57977509498596,-0.66,-0.37,9.56,-0.06,-0.13,-0.06,-19.25,19.25,-41.19,1.00,-0.03,0.03,0.06
325.90359687805176,-0.68,-0.36,9.61,0.00,0.13,-0.06,-19.25,18.88,-40.75,1.00,-0.03,0.03,0.06
326.23128294944763,-0.66,-0.34,9.57,-0.06,-0.06,0.06,-19.25,19.56,-39.56,1.00,-0.03,0.03,0.06
326.5556628704071,-0.65,-0.37,9.60,0.06,-0.19,0.13,-18.88,19.25,-40.06,1.00,-0.03,0.03,0.06
326.8824441432953,-0.67,-0.37,9.57,0.00,-0.06,0.00,-19.25,18.50,-40.38,1.00,-0.03,0.03,0.06
327.2078540325165,-0.66,-0.36,9.58,-0.06,-0.13,0.00,-19.56,18.50,-41.19,1.00,-0.03,0.03,0.06
327.53391790390015,-0.67,-0.37,9.56,0.00,-0.13,0.13,-19.25,18.88,-40.06,1.00,-0.03,0.03,0.06
327.8608946800232,-0.64,-0.35,9.57,0.00,-0.06,-0.06,-19.25,17.75,-41.56,1.00,-0.03,0.03,0.06
328.1862699985504,-0.66,-0.38,9.58,0.06,-0.13,0.06,-19.56,18.88,-39.25,1.00,-0.03,0.03,0.06
328.5105884075165,-0.66,-0.35,9.60,0.00,0.00,0.06,-19.56,19.25,-41.19,1.00,-0.03,0.03,0.06
328.8375964164734,-0.65,-0.35,9.58,0.06,-0.19,0.06,-20.00,19.56,-40.38,1.00,-0.03,0.03,0.06
329.1624059677124,-0.67,-0.35,9.60,0.00,-0.13,0.00,-19.25,18.88,-41.19,1.00,-0.03,0.03,0.06
329.4902367591858,-0.67,-0.36,9.57,-0.06,0.00,0.00,-19.56,18.50,-40.75,1.00,-0.03,0.03,0.06
329.8138015270233,-0.68,-0.37,9.55,0.13,0.00,0.13,-19.56,18.06,-40.06,1.00,-0.03,0.03,0.06
330.14179277420044,-0.66,-0.39,9.61,0.00,-0.06,0.00,-19.56,19.25,-40.38,1.00,-0.03,0.03,0.06
330.4659433364868,-0.68,-0.35,9.59,-0.06,0.06,0.00,-19.25,18.50,-41.19,1.00,-0.03,0.03,0.06
330.7930645942688,-0.67,-0.37,9.59,0.00,0.00,-0.06,-19.25,18.88,-40.06,1.00,-0.03,0.03,0.06
331.1177673339844,-0.67,-0.36,9.58,0.13,-0.13,0.06,-19.25,19.25,-41.56,1.00,-0.03,0.03,0.06
331.4447739124298,-0.66,-0.36,9.55,-0.06,-0.06,0.13,-20.38,19.25,-40.75,1.00,-0.03,0.03,0.06
331.7699534893036,-0.67,-0.35,9.54,0.00,-0.13,-0.13,-19.25,20.00,-39.56,1.00,-0.03,0.03,0.06
332.096937417984,-0.65,-0.36,9.59,0.00,-0.13,0.00,-18.88,18.50,-41.19,1.00,-0.03,0.03,0.06
332.4214062690735,-0.67,-0.37,9.59,-0.06,0.06,-0.06,-19.25,18.06,-40.06,1.00,-0.03,0.03,0.06
332.74841570854187,-0.68,-0.36,9.58,0.00,0.13,0.13,-20.38,18.06,-40.38,1.00,-0.03,0.03,0.06
333.0751647949219,-0.65,-0.36,9.59,-0.06,-0.13,0.06,-19.56,18.88,-42.00,1.00,-0.03,0.03,0.06
333.40100955963135,-0.67,-0.38,9.58,0.00,-0.06,0.06,-19.25,18.06,-40.38,1.00,-0.03,0.03,0.06
333.725004196167,-0.67,-0.36,9.59,0.13,-0.25,-0.06,-18.88,18.88,-40.06,1.00,-0.03,0.03,0.06
334.05238246917725,-0.68,-0.35,9.59,-0.06,0.00,-0.06,-19.25,18.50,-39.25,1.00,-0.03,0.03,0.06
